onset	duration	 pic_onset	 block	 block_kind	 picName	 condition	 response
0.014109	12.025136	0.032452	 fix	 fix	 fix	 fix	 n/a
12.039245	1.000524	0.022245	1	 Object	 trunk.jpg	 diff	0
13.039769	1.000309	0.020988	1	 Object	 taperecorder.jpg	 diff	0
14.040078	1.000346	0.020271	1	 Object	 window.jpg	 diff	0
15.040424	1.006093	0.019561	1	 Object	 window.jpg	 same	1
16.046517	1.00031	0.01299	1	 Object	 robot.jpg	 diff	0
17.046827	1.000308	0.012364	1	 Object	 picnic_table.jpg	 diff	0
18.047135	1.00035	0.011697	1	 Object	 ashtray.jpg	 diff	0
19.047485	1.000335	0.011315	1	 Object	 Water-Cooler.jpg	 diff	0
20.04782	1.000339	0.010187	1	 Object	 glasses.jpg	 diff	0
21.048159	1.000333	0.009458	1	 Object	 basket.jpg	 diff	0
22.048492	1.000336	0.025469	1	 Object	 wax_candle.jpg	 diff	0
23.048828	1.000337	0.024735	1	 Object	 kleenex.jpg	 diff	0
24.049165	1.000343	0.024022	1	 Object	 armyknife.jpg	 diff	0
25.049508	1.00035	0.023274	1	 Object	 rubik-origin/al.jpg	 diff	0
26.049858	1.000346	0.022544	1	 Object	 rubik-origin/al.jpg	 same	0
27.050204	1.001081	0.02183	1	 Object	 pen.jpg	 diff	0
28.051285	7.984937	28.051285	 fix	 fix	 fix	 fix	 n/a
36.036222	1.000344	0.015652	2	 Scene	 sun_ahiphsekjihkafsl.jpg	 diff	0
37.036566	1.000348	0.015019	2	 Scene	 sun_alelnnyvuqcrjaqz.jpg	 diff	0
38.036914	1.000348	0.014203	2	 Scene	 house (34).jpg	 diff	0
39.037262	1.000339	0.013477	2	 Scene	 article-new_ehow_images_a04_ts_nq_implement-small-living-room-design-800x800.jpg	 diff	0
40.037601	1.000344	0.012722	2	 Scene	 house (19).jpg	 diff	0
41.037945	1.000355	0.011995	2	 Scene	 Kitchen NW.JPG	 diff	0
42.0383	1.000348	0.011362	2	 Scene	 baseballField.jpg	 diff	0
43.038648	1.000349	0.010503	2	 Scene	 sun_bbwlgfnxaocrxula.jpg	 diff	0
44.038997	1.000342	0.009774	2	 Scene	 sun_djdeitrckcbvpdam.jpg	 diff	0
45.039339	1.00035	0.025735	2	 Scene	 sun_aowymmyymtohyobt.jpg	 diff	0
46.039689	1.000343	0.025004	2	 Scene	 sun_aowymmyymtohyobt.jpg	 same	0
47.040032	1.000366	0.02428	2	 Scene	 wilderness.jpg	 diff	0
48.040398	1.000331	0.02355	2	 Scene	 sun_bgmhznufwrnnqfse.jpg	 diff	0
49.040729	1.000614	0.02282	2	 Scene	 sun_bgmhznufwrnnqfse.jpg	 same	0
50.041343	1.000421	0.021908	2	 Scene	 playground1.jpg	 diff	0
51.041764	1.000325	0.021083	2	 Scene	 sun_aggkercxcokysdyb.jpg	 diff	0
52.042089	7.994159	52.042089	 fix	 fix	 fix	 fix	 n/a
60.036248	1.000347	0.023104	3	 Object	 tree.jpg	 diff	0
61.036595	1.00035	0.022334	3	 Object	 barrel.jpg	 diff	0
62.036945	1.000341	0.021614	3	 Object	 binoculars.jpg	 diff	0
63.037286	1.00035	0.02088	3	 Object	 binoculars.jpg	 same	0
64.037636	1.000337	0.020122	3	 Object	 folding_chair.jpg	 diff	0
65.037973	1.000361	0.019431	3	 Object	 key.jpg	 diff	0
66.038334	1.004626	0.018664	3	 Object	 key.jpg	 same	1
67.04296	1.000293	0.013654	3	 Object	 Baseball_cap.jpg	 diff	0
68.043253	1.000309	0.012963	3	 Object	 brass_bell.jpg	 diff	0
69.043562	1.000332	0.012281	3	 Object	 ac.jpg	 diff	0
70.043894	1.000342	0.011554	3	 Object	 menshoes.jpg	 diff	0
71.044236	1.000342	0.01139	3	 Object	 radio1.jpg	 diff	0
72.044578	1.000339	0.01006	3	 Object	 radiator.jpg	 diff	0
73.044917	1.000338	0.009336	3	 Object	 cart.jpg	 diff	0
74.045255	1.000303	0.025337	3	 Object	 calculator01.jpg	 diff	0
75.045558	1.000319	0.024672	3	 Object	 lock.jpg	 diff	0
76.045877	7.99042	76.045877	 fix	 fix	 fix	 fix	 n/a
84.036297	1.000357	0.014784	4	 Scene	 sun_aakhldepajyducxp.jpg	 diff	0
85.036654	1.000336	0.013015	4	 Scene	 fountain.jpg	 diff	0
86.03699	1.000337	0.012293	4	 Scene	 kitchen3.jpg	 diff	0
87.037327	1.000331	0.011573	4	 Scene	 house (28).jpg	 diff	0
88.037658	1.00034	0.011216	4	 Scene	 country-house-bedroom-design-ideas-585x587.jpg	 diff	0
89.037998	1.004538	0.010111	4	 Scene	 country-house-bedroom-design-ideas-585x587.jpg	 same	1
90.042536	1.000501	0.021927	4	 Scene	 clothingStore.jpg	 diff	0
91.043037	1.000311	0.020997	4	 Scene	 Laundromat.JPG	 diff	0
92.043348	1.000311	0.020324	4	 Scene	 farm.jpg	 diff	0
93.043659	1.000337	0.019618	4	 Scene	 sun_agpxkgsdlobslcpl.jpg	 diff	0
94.043996	1.000328	0.01888	4	 Scene	 hairSalon.jpg	 diff	0
95.044324	1.00032	0.01818	4	 Scene	 house (33).jpg	 diff	0
96.044644	1.00033	0.017463	4	 Scene	 sun_abokeplpazkdxpps.jpg	 diff	0
97.044974	1.000336	0.016758	4	 Scene	 boat.jpg	 diff	0
98.04531	1.000326	0.016023	4	 Scene	 boat.jpg	 same	0
99.045636	1.000312	0.015317	4	 Scene	 office.jpg	 diff	0
100.045948	7.9904	100.045948	 fix	 fix	 fix	 fix	 n/a
108.036348	1.000322	0.021159	5	 Object	 garbage.jpg	 diff	0
109.03667	1.00035	0.020432	5	 Object	 sattelitedish.jpg	 diff	0
110.03702	1.000315	0.019714	5	 Object	 good-duffel.jpg	 diff	0
111.037335	1.005967	0.019017	5	 Object	 good-duffel.jpg	 same	1
112.043302	1.000312	0.012869	5	 Object	 water.jpg	 diff	0
113.043614	1.000355	0.011939	5	 Object	 cookie.JPG	 diff	0
114.043969	1.000343	0.011458	5	 Object	 box01.jpg	 diff	0
115.044312	1.004581	0.010454	5	 Object	 box01.jpg	 same	1
116.048893	1.000547	0.022172	5	 Object	 cassette.jpg	 diff	0
117.04944	1.00033	0.021244	5	 Object	 bench.jpg	 diff	0
118.04977	1.000335	0.020541	5	 Object	 jar.jpg	 diff	0
119.050105	1.000354	0.019828	5	 Object	 Newspaper.jpg	 diff	0
120.050459	1.000339	0.019084	5	 Object	 pizza_box.jpg	 diff	0
121.050798	1.000331	0.018354	5	 Object	 step_stool.jpg	 diff	0
122.051129	1.000339	0.017641	5	 Object	 videocamera01a.jpg	 diff	0
123.051468	1.000324	0.016907	5	 Object	 camera.jpg	 diff	0
124.051792	7.984601	124.051792	 fix	 fix	 fix	 fix	 n/a
132.036393	1.000329	0.011822	6	 Scene	 sun_bpylwuanlniztocc.jpg	 diff	0
133.036722	1.000332	0.011541	6	 Scene	 sun_acdxfdescuvzgfdq.jpg	 diff	0
134.037054	1.000326	0.010394	6	 Scene	 sun_bbsbobcpdqtugepx.jpg	 diff	0
135.03738	1.004547	0.026411	6	 Scene	 sun_bbsbobcpdqtugepx.jpg	 same	1
136.041927	1.000304	0.021496	6	 Scene	 sun_abfnxcxrrkcbdheo.jpg	 diff	0
137.042231	1.000356	0.020757	6	 Scene	 kitchen002.jpg	 diff	0
138.042587	1.000458	0.020033	6	 Scene	 sun_abkmizyubcfcudbr.jpg	 diff	0
139.043045	1.000351	0.019171	6	 Scene	 sun_abqebcsztsrfubjs.jpg	 diff	0
140.043396	1.00035	0.018466	6	 Scene	 sun_aicccdealzkfllqt.jpg	 diff	0
141.043746	1.000385	0.017715	6	 Scene	 theater.jpg	 diff	0
142.044131	1.000332	0.016929	6	 Scene	 bathroomHotel.jpg	 diff	0
143.044463	1.000338	0.016216	6	 Scene	 Furnished-Office.jpg	 diff	0
144.044801	1.000336	0.0155	6	 Scene	 sun_dfpnwxijxsvjhjyo.jpg	 diff	0
145.045137	1.000351	0.014766	6	 Scene	 home-office-design-ideas.jpg	 diff	0
146.045488	1.000507	0.01411	6	 Scene	 home-office-design-ideas.jpg	 same	0
147.045995	1.000322	0.013145	6	 Scene	 street.jpg	 diff	0
148.046317	7.990114	148.046317	 fix	 fix	 fix	 fix	 n/a
156.036431	1.000345	0.019239	7	 Object	 bike.jpg	 diff	0
157.036776	1.000352	0.018535	7	 Object	 plant01.jpg	 diff	0
158.037128	1.000375	0.017773	7	 Object	 scissors.jpg	 diff	0
159.037503	1.000359	0.01701	7	 Object	 scissors.jpg	 same	0
160.037862	1.000359	0.016263	7	 Object	 Helicopter.jpg	 diff	0
161.038221	1.000363	0.015536	7	 Object	 distributor.jpg	 diff	0
162.038584	1.000347	0.01478	7	 Object	 branch02.jpg	 diff	0
163.038931	1.000364	0.014061	7	 Object	 fence.jpg	 diff	0
164.039295	1.00035	0.013289	7	 Object	 oak_chair.jpg	 diff	0
165.039645	1.000351	0.012554	7	 Object	 candy.jpg	 diff	0
166.039996	1.000356	0.011816	7	 Object	 surge.jpg	 diff	0
167.040352	1.000354	0.01137	7	 Object	 surge.jpg	 same	0
168.040706	1.00035	0.010321	7	 Object	 razor.jpg	 diff	0
169.041056	1.000356	0.009569	7	 Object	 atm.jpg	 diff	0
170.041412	1.000365	0.02555	7	 Object	 cooler.jpg	 diff	0
171.041777	1.000337	0.024809	7	 Object	 table.jpg	 diff	0
172.042114	7.994355	172.042114	 fix	 fix	 fix	 fix	 n/a
180.036469	1.000357	0.026695	8	 Scene	 sun_afjnbldlkryenvxn.jpg	 diff	0
181.036826	1.00037	0.025901	8	 Scene	 bluff-house-living-room.jpg	 diff	0
182.037196	1.000359	0.025162	8	 Scene	 sun_ajofholrxfzifcca.jpg	 diff	0
183.037555	1.004633	0.02443	8	 Scene	 sun_ajofholrxfzifcca.jpg	 same	1
184.042188	1.00033	0.019399	8	 Scene	 elevator.jpg	 diff	0
185.042518	1.000362	0.018657	8	 Scene	 gazebo.jpg	 diff	0
186.04288	1.000361	0.017904	8	 Scene	 sun_aghsutguqpsbxebg.jpg	 diff	0
187.043241	1.000376	0.017143	8	 Scene	 697_1343838978.JPG	 diff	0
188.043617	1.000352	0.016385	8	 Scene	 house (29).jpg	 diff	0
189.043969	1.000355	0.015654	8	 Scene	 may 20th 2011 002.JPG	 diff	0
190.044324	1.000358	0.014936	8	 Scene	 may 20th 2011 002.JPG	 same	0
191.044682	1.000371	0.014259	8	 Scene	 tennisCourt.jpg	 diff	0
192.045053	1.000342	0.013401	8	 Scene	 diningRoom.jpg	 diff	0
193.045395	1.000508	0.012682	8	 Scene	 kitchen.jpg	 diff	0
194.045903	1.000353	0.011759	8	 Scene	 gargage.jpg	 diff	0
195.046256	1.000348	0.011434	8	 Scene	 Model_bedroom1.jpg	 diff	0
196.046604	7.989914	196.046604	 fix	 fix	 fix	 fix	 n/a
204.036518	1.000431	0.017313	9	 Object	 backpack.jpg	 diff	0
205.036949	1.000367	0.016506	9	 Object	 umbrella2.jpg	 diff	0
206.037316	1.000331	0.015771	9	 Object	 boxcutter03a.jpg	 diff	0
207.037647	1.000364	0.015069	9	 Object	 lamp.jpg	 diff	0
208.038011	1.000364	0.014419	9	 Object	 phone.jpg	 diff	0
209.038375	1.000363	0.013531	9	 Object	 9volt.jpg	 diff	0
210.038738	1.000373	0.012801	9	 Object	 rug.jpg	 diff	0
211.039111	1.004608	0.012015	9	 Object	 rug.jpg	 same	1
212.043719	1.000312	0.023755	9	 Object	 humidifier.jpg	 diff	0
213.044031	1.000371	0.023114	9	 Object	 humidifier.jpg	 same	0
214.044402	1.000354	0.022309	9	 Object	 globe.jpg	 diff	0
215.044756	1.000372	0.021535	9	 Object	 bungeecord02.jpg	 diff	0
216.045128	1.000351	0.020809	9	 Object	 spraybottle01.jpg	 diff	0
217.045479	1.000353	0.020171	9	 Object	 laptop.jpg	 diff	0
218.045832	1.000357	0.019348	9	 Object	 fan.jpg	 diff	0
219.046189	1.000316	0.018531	9	 Object	 safe.jpg	 diff	0
220.046505	7.990057	220.046505	 fix	 fix	 fix	 fix	 n/a
228.036562	1.000354	0.024762	10	 Scene	 olympicPool.jpg	 diff	0
229.036916	1.000366	0.023993	10	 Scene	 sun_batmvkznuuvmbdzp.jpg	 diff	0
230.037282	1.000338	0.023275	10	 Scene	 varadero-beach-13897-2560x1600.jpg	 diff	0
231.03762	1.000372	0.022539	10	 Scene	 livingRoom.jpg	 diff	0
232.037992	1.000359	0.021794	10	 Scene	 livingRoom.jpg	 same	0
233.038351	1.000387	0.021291	10	 Scene	 sun_bgmylyaviikfuowd.jpg	 diff	0
234.038738	1.000749	0.020443	10	 Scene	 sun_bhacgmcdgrgtyplg.jpg	 diff	0
235.039487	1.000435	0.019079	10	 Scene	 varadero-beach-13915-2560x1600.jpg	 diff	0
236.039922	1.000361	0.018249	10	 Scene	 sun_abavymzrpmpsplvt.jpg	 diff	0
237.040283	1.004574	0.017535	10	 Scene	 sun_abavymzrpmpsplvt.jpg	 same	1
238.044857	1.00032	0.012637	10	 Scene	 house (21).jpg	 diff	0
239.045177	1.000348	0.011872	10	 Scene	 sidewalk.jpg	 diff	0
240.045525	1.000369	0.011105	10	 Scene	 sun_aiyqlrbcjqqjumtf.jpg	 diff	0
241.045894	1.000343	0.010336	10	 Scene	 lab.jpg	 diff	0
242.046237	1.000354	0.009644	10	 Scene	 contemporary-home-offices.jpg	 diff	0
243.046591	1.000316	0.009996	10	 Scene	 house (32).jpg	 diff	0
244.046907	7.989695	244.046907	 fix	 fix	 fix	 fix	 n/a
252.036602	1.000365	0.015484	11	 Object	 crate.jpg	 diff	0
253.036967	1.000363	0.01465	11	 Object	 lightbulb.jpg	 diff	0
254.03733	1.000362	0.013898	11	 Object	 clock.jpg	 diff	0
255.037692	1.000398	0.013172	11	 Object	 hotairballoon.jpg	 diff	0
256.03809	1.000362	0.012934	11	 Object	 bottle.jpg	 diff	0
257.038452	1.000366	0.011629	11	 Object	 outlet.jpg	 diff	0
258.038818	1.000365	0.010872	11	 Object	 vase.jpg	 diff	0
259.039183	1.00039	0.010127	11	 Object	 box.jpg	 diff	0
260.039573	1.000356	0.009323	11	 Object	 box.jpg	 same	0
261.039929	1.000369	0.025314	11	 Object	 coffee.jpg	 diff	0
262.040298	1.000357	0.024581	11	 Object	 usbkey.jpg	 diff	0
263.040655	1.000367	0.023808	11	 Object	 flashlight.jpg	 diff	0
264.041022	1.000354	0.023081	11	 Object	 flashlight.jpg	 same	0
265.041376	1.000369	0.022352	11	 Object	 chess.JPG	 diff	0
266.041745	1.000339	0.021593	11	 Object	 flipflop.jpg	 diff	0
267.042084	1.000382	0.020844	11	 Object	 fireExt.jpg	 diff	0
268.042466	7.99418	268.042466	 fix	 fix	 fix	 fix	 n/a
276.036646	1.000338	0.022824	12	 Scene	 supermarket.jpg	 diff	0
277.036984	1.000362	0.022104	12	 Scene	 library.jpg	 diff	0
278.037346	1.00035	0.02132	12	 Scene	 Echo_Bedroom.jpg	 diff	0
279.037696	1.000357	0.020591	12	 Scene	 gym.jpg	 diff	0
280.038053	1.000362	0.019829	12	 Scene	 Home_Office.jpg	 diff	0
281.038415	1.000417	0.019074	12	 Scene	 nursery.jpg	 diff	0
282.038832	1.000335	0.018273	12	 Scene	 nursery.jpg	 same	0
283.039167	1.00037	0.017566	12	 Scene	 sun_aczmgnjjiykpqyts.jpg	 diff	0
284.039537	1.000372	0.016822	12	 Scene	 sun_aczmgnjjiykpqyts.jpg	 same	0
285.039909	1.000368	0.016066	12	 Scene	 beachUmbrella.jpg	 diff	0
286.040277	1.000367	0.015288	12	 Scene	 house (16).jpg	 diff	0
287.040644	1.000548	0.014562	12	 Scene	 cafe.jpg	 diff	0
288.041192	1.000369	0.013604	12	 Scene	 sun_acggnoeidnfjlcis.jpg	 diff	0
289.041561	1.000375	0.013147	12	 Scene	 bedroom.jpg	 diff	0
290.041936	1.000373	0.012684	12	 Scene	 sun_acfzwujvudexaklv.jpg	 diff	0
291.042309	1.00039	0.011326	12	 Scene	 living-modern-room.jpg	 diff	0
292.042699	12	292.042699	 fix	 fix	 fix	 fix	 n/a
