onset	duration	run#	block_kind	current_block	actual_TR	stim_n/ame	fixation_kind	response	RT
0.37	12.02	1	fix	n/a	0	n/a	white	n/a	n/a
12.39	1.62	1	wkobj	8	6	wkobj4	red	0	9999
14.01	1.99	1	wkobj	8	7	wkobj2	green	1	783.62
16	2.0	1	wkobj	8	8	wkobj3	red	0	9999
18	2.0	1	wkobj	8	9	wkobj1	red	0	9999
20	2.0	1	wkobj	8	10	wkobj2	red	0	9999
22	2.0	1	wkobj	8	11	wkobj3	red	0	9999
24	2.0	1	wkobj	8	12	wkobj1	red	0	9999
26	2.02	1	wkobj	8	13	wkobj4	green	1	908.06
28.02	8.03	1	fix	n/a	14	n/a	white	n/a	n/a
36.05	1.95	1	Sp	1	18	n/a	red	0	9999
38	2.0	1	Sp	1	19	n/a	green	1	753.13
40	2.0	1	Sp	1	20	n/a	red	0	9999
42	2.0	1	Sp	1	21	n/a	green	1	500.7
44	2.0	1	Sp	1	22	n/a	red	0	9999
46	2.0	1	Sp	1	23	n/a	red	0	9999
48	2.0	1	Sp	1	24	n/a	red	0	9999
50	2.01	1	Sp	1	25	n/a	red	0	9999
52.01	8.03	1	fix	n/a	26	n/a	white	n/a	n/a
60.04	1.96	1	hallway	7	30	hallway1	red	0	9999
62	2.0	1	hallway	7	31	hallway3	green	1	884.24
64	2.0	1	hallway	7	32	hallway4	red	0	9999
66	2.0	1	hallway	7	33	hallway2	green	1	891.17
68	2.0	1	hallway	7	34	hallway2	red	0	9999
70	2.0	1	hallway	7	35	hallway4	red	0	9999
72	2.0	1	hallway	7	36	hallway3	red	0	9999
74	2.02	1	hallway	7	37	hallway1	red	0	9999
76.02	8.02	1	fix	n/a	38	n/a	white	n/a	n/a
84.04	1.96	1	ID	3	42	n/a	red	0	9999
86	2.0	1	ID	3	43	n/a	red	0	9999
88	2.0	1	ID	3	44	n/a	red	0	9999
90	2.0	1	ID	3	45	n/a	green	1	564.79
92	2.0	1	ID	3	46	n/a	green	1	830.25
94	2.0	1	ID	3	47	n/a	red	0	9999
96	2.0	1	ID	3	48	n/a	red	0	9999
98	2.01	1	ID	3	49	n/a	red	0	9999
100.01	8.03	1	fix	n/a	50	n/a	white	n/a	n/a
108.04	1.96	1	NC	4	54	n/a	green	1	586.17
110	2.0	1	NC	4	55	n/a	red	0	9999
112	2.0	1	NC	4	56	n/a	red	0	9999
114	2.0	1	NC	4	57	n/a	red	0	9999
116	2.0	1	NC	4	58	n/a	red	0	9999
118	2.0	1	NC	4	59	n/a	green	1	567.27
120	2.0	1	NC	4	60	n/a	red	0	9999
122	2.02	1	NC	4	61	n/a	red	0	9999
124.02	8.02	1	fix	n/a	62	n/a	white	n/a	n/a
132.04	1.96	1	intersection	5	66	intersection3	green	1	737.96
134	2.0	1	intersection	5	67	intersection4	red	0	9999
136	2.0	1	intersection	5	68	intersection2	red	0	9999
138	2.0	1	intersection	5	69	intersection1	green	1	861.67
140	2.0	1	intersection	5	70	intersection1	red	0	9999
142	2.0	1	intersection	5	71	intersection3	red	0	9999
144	2.0	1	intersection	5	72	intersection2	red	0	9999
146	2.01	1	intersection	5	73	intersection4	red	0	9999
148.01	8.03	1	fix	n/a	74	n/a	white	n/a	n/a
156.04	1.96	1	scrambledobj	9	78	scrambledobj1	red	0	9999
158	2.0	1	scrambledobj	9	79	scrambledobj4	red	0	9999
160	2.0	1	scrambledobj	9	80	scrambledobj3	red	0	9999
162	2.0	1	scrambledobj	9	81	scrambledobj2	red	0	9999
164	2.0	1	scrambledobj	9	82	scrambledobj3	red	0	9999
166	2.0	1	scrambledobj	9	83	scrambledobj4	green	1	648.98
168	2.0	1	scrambledobj	9	84	scrambledobj1	red	0	9999
170	2.02	1	scrambledobj	9	85	scrambledobj2	green	1	705.44
172.02	8.02	1	fix	n/a	86	n/a	white	n/a	n/a
180.04	1.96	1	SpId	2	90	n/a	green	1	483.75
182	2.0	1	SpId	2	91	n/a	red	0	9999
184	2.0	1	SpId	2	92	n/a	red	0	9999
186	2.0	1	SpId	2	93	n/a	red	0	9999
188	2.0	1	SpId	2	94	n/a	red	0	9999
190	2.0	1	SpId	2	95	n/a	red	0	9999
192	2.0	1	SpId	2	96	n/a	green	1	658.15
194	2.01	1	SpId	2	97	n/a	red	0	9999
196.01	8.03	1	fix	n/a	98	n/a	white	n/a	n/a
204.04	1.96	1	longroad	6	102	longroad3	red	0	9999
206	2.0	1	longroad	6	103	longroad2	red	0	9999
208	2.0	1	longroad	6	104	longroad1	red	0	9999
210	2.0	1	longroad	6	105	longroad4	red	0	9999
212	2.0	1	longroad	6	106	longroad4	green	1	841.22
214	2.0	1	longroad	6	107	longroad1	red	0	9999
216	2.0	1	longroad	6	108	longroad2	green	1	634.46
218	2.01	1	longroad	6	109	longroad3	red	0	9999
220.01	8.03	1	fix	n/a	110	n/a	white	n/a	n/a
228.04	1.96	1	longroad	6	114	longroad1	green	1	565.82
230	2.0	1	longroad	6	115	longroad3	red	0	9999
232	2.0	1	longroad	6	116	longroad4	red	0	9999
234	2.0	1	longroad	6	117	longroad2	red	0	9999
236	2.0	1	longroad	6	118	longroad4	red	0	9999
238	2.0	1	longroad	6	119	longroad1	red	0	9999
240	2.0	1	longroad	6	120	longroad2	red	0	9999
242	2.0	1	longroad	6	121	longroad3	green	1	635.84
244	8.04	1	fix	n/a	122	n/a	white	n/a	n/a
252.04	1.96	1	Sp	1	126	n/a	red	0	9999
254	2.0	1	Sp	1	127	n/a	red	0	9999
256	2.0	1	Sp	1	128	n/a	red	0	9999
258	2.0	1	Sp	1	129	n/a	red	0	9999
260	2.0	1	Sp	1	130	n/a	green	1	563.45
262	2.0	1	Sp	1	131	n/a	red	0	9999
264	2.0	1	Sp	1	132	n/a	green	1	549.77
266	2.01	1	Sp	1	133	n/a	red	0	9999
268.01	8.03	1	fix	n/a	134	n/a	white	n/a	n/a
276.04	1.96	1	SpId	2	138	n/a	red	0	9999
278	2.0	1	SpId	2	139	n/a	red	0	9999
280	2.0	1	SpId	2	140	n/a	green	1	651.3
282	2.0	1	SpId	2	141	n/a	red	0	9999
284	2.0	1	SpId	2	142	n/a	red	0	9999
286	2.0	1	SpId	2	143	n/a	red	0	9999
288	2.0	1	SpId	2	144	n/a	green	1	654.31
290	2.02	1	SpId	2	145	n/a	red	0	9999
292.02	8.03	1	fix	n/a	146	n/a	white	n/a	n/a
300.05	1.95	1	wkobj	8	150	wkobj2	green	1	639.78
302	2.0	1	wkobj	8	151	wkobj1	red	0	9999
304	2.0	1	wkobj	8	152	wkobj4	green	1	530.41
306	2.0	1	wkobj	8	153	wkobj3	red	0	9999
308	2.0	1	wkobj	8	154	wkobj1	red	0	9999
310	2.0	1	wkobj	8	155	wkobj3	red	0	9999
312	2.0	1	wkobj	8	156	wkobj4	red	0	9999
314	2.01	1	wkobj	8	157	wkobj2	red	0	9999
316.01	8.04	1	fix	n/a	158	n/a	white	n/a	n/a
324.05	1.95	1	NC	4	162	n/a	red	0	9999
326	2.0	1	NC	4	163	n/a	red	0	9999
328	2.0	1	NC	4	164	n/a	red	0	9999
330	2.0	1	NC	4	165	n/a	red	0	9999
332	2.0	1	NC	4	166	n/a	red	0	9999
334	2.0	1	NC	4	167	n/a	green	1	510.83
336	2.0	1	NC	4	168	n/a	green	1	1440.5
338	2.02	1	NC	4	169	n/a	red	0	9999
340.02	8.03	1	fix	n/a	170	n/a	white	n/a	n/a
348.05	1.95	1	scrambledobj	9	174	scrambledobj2	red	0	9999
350	2.0	1	scrambledobj	9	175	scrambledobj4	red	0	9999
352	2.0	1	scrambledobj	9	176	scrambledobj1	green	1	564.59
354	2.0	1	scrambledobj	9	177	scrambledobj3	red	0	9999
356	2.0	1	scrambledobj	9	178	scrambledobj4	green	1	573.78
358	2.0	1	scrambledobj	9	179	scrambledobj2	red	0	9999
360	2.0	1	scrambledobj	9	180	scrambledobj3	red	0	9999
362	2.01	1	scrambledobj	9	181	scrambledobj1	red	0	9999
364.01	8.03	1	fix	n/a	182	n/a	white	n/a	n/a
372.04	1.96	1	ID	3	186	n/a	red	0	9999
374	2.0	1	ID	3	187	n/a	red	0	9999
376	2.0	1	ID	3	188	n/a	green	1	558
378	2.0	1	ID	3	189	n/a	green	1	519.03
380	2.0	1	ID	3	190	n/a	red	0	9999
382	2.0	1	ID	3	191	n/a	red	0	9999
384	2.0	1	ID	3	192	n/a	red	0	9999
386	2.02	1	ID	3	193	n/a	red	0	9999
388.02	8.03	1	fix	n/a	194	n/a	white	n/a	n/a
396.05	1.95	1	hallway	7	198	hallway3	green	1	923.36
398	2.0	1	hallway	7	199	hallway2	red	0	9999
400	2.0	1	hallway	7	200	hallway4	red	0	9999
402	2.0	1	hallway	7	201	hallway1	green	1	638.71
404	2.0	1	hallway	7	202	hallway1	red	0	9999
406	2.0	1	hallway	7	203	hallway2	red	0	9999
408	2.0	1	hallway	7	204	hallway4	red	0	9999
410	2.01	1	hallway	7	205	hallway3	red	0	9999
412.01	8.03	1	fix	n/a	206	n/a	white	n/a	n/a
420.04	1.96	1	intersection	5	210	intersection4	red	0	9999
422	2.0	1	intersection	5	211	intersection3	green	1	598.15
424	2.0	1	intersection	5	212	intersection1	green	1	703.84
426	2.0	1	intersection	5	213	intersection2	red	0	9999
428	2.0	1	intersection	5	214	intersection3	red	0	9999
430	2.0	1	intersection	5	215	intersection1	red	0	9999
432	2.0	1	intersection	5	216	intersection4	red	0	9999
434	2.01	1	intersection	5	217	intersection2	red	0	9999
436.01	12.04	1	fix	n/a	218	n/a	white	n/a	n/a
448.05	12	1	EndFix	n/a	224	n/a	white	n/a	n/a
