onset	duration	run#	block_kind	current_block	actual_TR	stim_n/ame	fixation_kind	response	RT
0.02	12.0	2	fix	n/a	0	n/a	white	n/a	n/a
12.02	1.98	2	NC	4	6	n/a	green	1	1521.74
14	2.0	2	NC	4	7	n/a	red	0	9999
16	2.0	2	NC	4	8	n/a	red	0	9999
18	2.0	2	NC	4	9	n/a	red	0	9999
20	2.0	2	NC	4	10	n/a	red	0	9999
22	2.0	2	NC	4	11	n/a	red	0	9999
24	2.0	2	NC	4	12	n/a	red	0	9999
26	2.01	2	NC	4	13	n/a	green	1	470.62
28.01	8.02	2	fix	n/a	14	n/a	white	n/a	n/a
36.03	1.97	2	Sp	1	18	n/a	red	0	9999
38	2.0	2	Sp	1	19	n/a	green	1	604.33
40	2.0	2	Sp	1	20	n/a	red	0	9999
42	2.0	2	Sp	1	21	n/a	red	0	9999
44	2.0	2	Sp	1	22	n/a	green	1	470.61
46	2.0	2	Sp	1	23	n/a	red	0	9999
48	2.0	2	Sp	1	24	n/a	red	0	9999
50	2.01	2	Sp	1	25	n/a	red	0	9999
52.01	8.03	2	fix	n/a	26	n/a	white	n/a	n/a
60.04	1.96	2	scrambledobj	9	30	scrambledobj2	green	1	625.15
62	2.0	2	scrambledobj	9	31	scrambledobj4	red	0	9999
64	2.0	2	scrambledobj	9	32	scrambledobj1	red	0	9999
66	2.0	2	scrambledobj	9	33	scrambledobj3	green	1	574.1
68	2.0	2	scrambledobj	9	34	scrambledobj3	red	0	9999
70	2.0	2	scrambledobj	9	35	scrambledobj4	red	0	9999
72	2.0	2	scrambledobj	9	36	scrambledobj2	red	0	9999
74	2.0	2	scrambledobj	9	37	scrambledobj1	red	0	9999
76	8.03	2	fix	n/a	38	n/a	white	n/a	n/a
84.03	1.97	2	wkobj	8	42	wkobj4	red	0	9999
86	2.0	2	wkobj	8	43	wkobj2	red	0	9999
88	2.0	2	wkobj	8	44	wkobj3	red	0	9999
90	2.0	2	wkobj	8	45	wkobj1	red	0	9999
92	2.0	2	wkobj	8	46	wkobj1	red	0	9999
94	2.0	2	wkobj	8	47	wkobj4	red	0	9999
96	2.0	2	wkobj	8	48	wkobj2	green	1	673.12
98	2.01	2	wkobj	8	49	wkobj3	green	1	617.04
100.01	8.03	2	fix	n/a	50	n/a	white	n/a	n/a
108.04	1.96	2	longroad	6	54	longroad2	red	0	9999
110	2.0	2	longroad	6	55	longroad4	green	1	662.3
112	2.0	2	longroad	6	56	longroad3	red	0	9999
114	2.0	2	longroad	6	57	longroad1	red	0	9999
116	2.0	2	longroad	6	58	longroad2	green	1	912.14
118	2.0	2	longroad	6	59	longroad1	red	0	9999
120	2.0	2	longroad	6	60	longroad3	red	0	9999
122	2.02	2	longroad	6	61	longroad4	red	0	9999
124.02	8.03	2	fix	n/a	62	n/a	white	n/a	n/a
132.05	1.95	2	intersection	5	66	intersection2	red	0	9999
134	2.0	2	intersection	5	67	intersection4	red	0	9999
136	2.0	2	intersection	5	68	intersection3	red	0	9999
138	2.0	2	intersection	5	69	intersection1	red	0	9999
140	2.0	2	intersection	5	70	intersection1	red	0	9999
142	2.0	2	intersection	5	71	intersection4	green	1	865
144	2.0	2	intersection	5	72	intersection3	green	1	833.96
146	2.01	2	intersection	5	73	intersection2	red	0	9999
148.01	8.03	2	fix	n/a	74	n/a	white	n/a	n/a
156.04	1.96	2	ID	3	78	n/a	red	0	9999
158	2.0	2	ID	3	79	n/a	red	0	9999
160	2.0	2	ID	3	80	n/a	red	0	9999
162	2.0	2	ID	3	81	n/a	green	1	554.14
164	2.0	2	ID	3	82	n/a	red	0	9999
166	2.0	2	ID	3	83	n/a	red	0	9999
168	2.0	2	ID	3	84	n/a	red	0	9999
170	2.02	2	ID	3	85	n/a	green	1	517.27
172.02	8.03	2	fix	n/a	86	n/a	white	n/a	n/a
180.05	1.95	2	hallway	7	90	hallway3	red	0	9999
182	2.0	2	hallway	7	91	hallway1	red	0	9999
184	2.0	2	hallway	7	92	hallway2	red	0	9999
186	2.0	2	hallway	7	93	hallway4	green	1	761.53
188	2.0	2	hallway	7	94	hallway1	red	0	9999
190	2.0	2	hallway	7	95	hallway3	red	0	9999
192	2.0	2	hallway	7	96	hallway4	red	0	9999
194	2.01	2	hallway	7	97	hallway2	green	1	540.25
196.01	8.03	2	fix	n/a	98	n/a	white	n/a	n/a
204.04	1.96	2	SpId	2	102	n/a	red	0	9999
206	2.0	2	SpId	2	103	n/a	red	0	9999
208	2.0	2	SpId	2	104	n/a	red	0	9999
210	2.0	2	SpId	2	105	n/a	red	0	9999
212	2.0	2	SpId	2	106	n/a	red	0	9999
214	2.0	2	SpId	2	107	n/a	green	1	548.41
216	2.0	2	SpId	2	108	n/a	green	1	773.56
218	2.02	2	SpId	2	109	n/a	red	0	9999
220.02	8.02	2	fix	n/a	110	n/a	white	n/a	n/a
228.04	1.96	2	intersection	5	114	intersection2	red	0	9999
230	2.0	2	intersection	5	115	intersection1	red	0	9999
232	2.0	2	intersection	5	116	intersection4	red	0	9999
234	2.0	2	intersection	5	117	intersection3	red	0	9999
236	2.0	2	intersection	5	118	intersection3	green	1	627.82
238	2.0	2	intersection	5	119	intersection4	red	0	9999
240	2.0	2	intersection	5	120	intersection2	green	1	573.45
242	2.01	2	intersection	5	121	intersection1	red	0	9999
244.01	8.03	2	fix	n/a	122	n/a	white	n/a	n/a
252.04	1.96	2	wkobj	8	126	wkobj2	green	1	681.7
254	2.0	2	wkobj	8	127	wkobj3	red	0	9999
256	2.0	2	wkobj	8	128	wkobj1	red	0	9999
258	2.0	2	wkobj	8	129	wkobj4	red	0	9999
260	2.0	2	wkobj	8	130	wkobj4	green	1	596.99
262	2.0	2	wkobj	8	131	wkobj2	red	0	9999
264	2.0	2	wkobj	8	132	wkobj3	red	0	9999
266	2.01	2	wkobj	8	133	wkobj1	red	0	9999
268.01	8.03	2	fix	n/a	134	n/a	white	n/a	n/a
276.04	1.96	2	SpId	2	138	n/a	red	0	9999
278	2.0	2	SpId	2	139	n/a	green	1	636.66
280	2.0	2	SpId	2	140	n/a	red	0	9999
282	2.0	2	SpId	2	141	n/a	red	0	9999
284	2.0	2	SpId	2	142	n/a	red	0	9999
286	2.0	2	SpId	2	143	n/a	red	0	9999
288	2.0	2	SpId	2	144	n/a	red	0	9999
290	2.0	2	SpId	2	145	n/a	green	0	9999
292	8.04	2	fix	n/a	146	n/a	white	n/a	n/a
300.04	1.96	2	Sp	1	150	n/a	green	1	603.46
302	2.0	2	Sp	1	151	n/a	red	0	9999
304	2.0	2	Sp	1	152	n/a	red	0	9999
306	2.0	2	Sp	1	153	n/a	red	0	9999
308	2.0	2	Sp	1	154	n/a	red	0	9999
310	2.0	2	Sp	1	155	n/a	red	0	9999
312	2.0	2	Sp	1	156	n/a	red	0	9999
314	2.01	2	Sp	1	157	n/a	green	1	594.51
316.01	8.03	2	fix	n/a	158	n/a	white	n/a	n/a
324.04	1.96	2	longroad	6	162	longroad1	green	1	755.29
326	2.0	2	longroad	6	163	longroad3	green	1	596.84
328	2.0	2	longroad	6	164	longroad4	red	0	9999
330	2.0	2	longroad	6	165	longroad2	red	0	9999
332	2.0	2	longroad	6	166	longroad3	red	0	9999
334	2.0	2	longroad	6	167	longroad1	red	0	9999
336	2.0	2	longroad	6	168	longroad2	red	0	9999
338	2.02	2	longroad	6	169	longroad4	red	0	9999
340.02	8.03	2	fix	n/a	170	n/a	white	n/a	n/a
348.05	1.95	2	NC	4	174	n/a	red	0	9999
350	2.0	2	NC	4	175	n/a	green	1	655.01
352	2.0	2	NC	4	176	n/a	red	0	9999
354	2.0	2	NC	4	177	n/a	red	0	9999
356	2.0	2	NC	4	178	n/a	green	1	521.69
358	2.0	2	NC	4	179	n/a	red	0	9999
360	2.0	2	NC	4	180	n/a	red	0	9999
362	2.01	2	NC	4	181	n/a	red	0	9999
364.01	8.03	2	fix	n/a	182	n/a	white	n/a	n/a
372.04	1.96	2	scrambledobj	9	186	scrambledobj4	red	0	9999
374	2.0	2	scrambledobj	9	187	scrambledobj3	green	1	783.61
376	2.0	2	scrambledobj	9	188	scrambledobj1	red	0	9999
378	2.0	2	scrambledobj	9	189	scrambledobj2	red	0	9999
380	2.0	2	scrambledobj	9	190	scrambledobj3	green	1	546.22
382	2.0	2	scrambledobj	9	191	scrambledobj1	red	0	9999
384	2.0	2	scrambledobj	9	192	scrambledobj2	red	0	9999
386	2.02	2	scrambledobj	9	193	scrambledobj4	red	0	9999
388.02	8.03	2	fix	n/a	194	n/a	white	n/a	n/a
396.05	1.95	2	ID	3	198	n/a	green	1	1070.1
398	2.0	2	ID	3	199	n/a	red	0	9999
400	2.0	2	ID	3	200	n/a	red	0	9999
402	2.0	2	ID	3	201	n/a	red	0	9999
404	2.0	2	ID	3	202	n/a	red	0	9999
406	2.0	2	ID	3	203	n/a	red	0	9999
408	2.0	2	ID	3	204	n/a	red	0	9999
410	2.01	2	ID	3	205	n/a	green	1	845.76
412.01	8.04	2	fix	n/a	206	n/a	white	n/a	n/a
420.05	1.95	2	hallway	7	210	hallway2	red	0	9999
422	2.0	2	hallway	7	211	hallway1	red	0	9999
424	2.0	2	hallway	7	212	hallway4	green	1	1153.28
426	2.0	2	hallway	7	213	hallway3	red	0	9999
428	2.0	2	hallway	7	214	hallway2	red	0	9999
430	2.0	2	hallway	7	215	hallway1	green	1	636.68
432	2.0	2	hallway	7	216	hallway4	red	0	9999
434	2.02	2	hallway	7	217	hallway3	red	0	9999
436.02	12.03	2	fix	n/a	218	n/a	white	n/a	n/a
448.05	12	2	EndFix	n/a	224	n/a	white	n/a	n/a
