onset	duration	 pic_onset	 block	 block_kind	 condition	 response
0.361383	12.02145	0.376006	 fix	 fix	 fix	 n/a
12.382833	1.000553	0.021896	1	 Scene	 diff	0
13.383386	1.000334	0.021034	1	 Scene	 diff	0
14.38372	1.00036	0.02022	1	 Scene	 diff	0
15.38408	1.000359	0.019472	1	 Scene	 diff	0
16.384439	1.000363	0.018735	1	 Scene	 diff	0
17.384802	1.000397	0.017974	1	 Scene	 diff	0
18.385199	1.000364	0.017206	1	 Scene	 diff	0
19.385563	1.000354	0.016482	1	 Scene	 diff	0
20.385917	1.005218	0.01571	1	 Scene	 same	1
21.391135	1.000325	0.010045	1	 Scene	 diff	0
22.39146	1.000323	0.026083	1	 Scene	 diff	0
23.391783	1.000348	0.02536	1	 Scene	 diff	0
24.392131	1.00036	0.02462	1	 Scene	 diff	0
25.392491	1.00033	0.02408	1	 Scene	 diff	0
26.392821	1.004527	0.023155	1	 Scene	 same	1
27.397348	1.001158	0.019754	1	 Scene	 diff	0
28.398506	7.981306	28.398506	 fix	 fix	 fix	 n/a
36.379812	1.000348	0.015667	2	 Object	 diff	0
37.38016	1.000356	0.01495	2	 Object	 diff	0
38.380516	1.00035	0.014215	2	 Object	 diff	0
39.380866	1.000369	0.013431	2	 Object	 diff	0
40.381235	1.000351	0.012673	2	 Object	 diff	0
41.381586	1.000409	0.011948	2	 Object	 diff	0
42.381995	1.004607	0.011825	2	 Object	 same	1
43.386602	1.000309	0.022822	2	 Object	 diff	0
44.386911	1.000337	0.022327	2	 Object	 diff	0
45.387248	1.000377	0.021424	2	 Object	 diff	0
46.387625	1.000353	0.020642	2	 Object	 diff	0
47.387978	1.000356	0.019907	2	 Object	 same	0
48.388334	1.000358	0.019187	2	 Object	 diff	0
49.388692	1.000367	0.018438	2	 Object	 diff	0
50.389059	1.000387	0.017676	2	 Object	 diff	0
51.389446	1.000392	0.016912	2	 Object	 diff	0
52.389838	7.990018	52.389838	 fix	 fix	 fix	 n/a
60.379856	1.00037	0.023056	3	 Scene	 diff	0
61.380226	1.000366	0.022287	3	 Scene	 diff	0
62.380592	1.000358	0.02154	3	 Scene	 diff	0
63.38095	1.000358	0.020804	3	 Scene	 same	0
64.381308	1.000374	0.02005	3	 Scene	 diff	0
65.381682	1.000361	0.019278	3	 Scene	 diff	0
66.382043	1.005871	0.018525	3	 Scene	 same	1
67.387914	1.000485	0.012202	3	 Scene	 diff	0
68.388399	1.000361	0.014371	3	 Scene	 diff	0
69.38876	1.000369	0.010645	3	 Scene	 diff	0
70.389129	1.000361	0.009884	3	 Scene	 diff	0
71.38949	1.000357	0.025852	3	 Scene	 diff	0
72.389847	1.000329	0.025089	3	 Scene	 diff	0
73.390176	1.000578	0.02438	3	 Scene	 diff	0
74.390754	1.000364	0.023447	3	 Scene	 diff	0
75.391118	1.000347	0.022674	3	 Scene	 diff	0
76.391465	7.988428	76.391465	 fix	 fix	 fix	 n/a
84.379893	1.000368	0.013758	4	 Object	 diff	0
85.380261	1.000373	0.012998	4	 Object	 diff	0
86.380634	1.000363	0.012243	4	 Object	 diff	0
87.380997	1.000358	0.011713	4	 Object	 diff	0
88.381355	1.000367	0.01073	4	 Object	 diff	0
89.381722	1.004524	0.015576	4	 Object	 same	1
90.386246	1.000314	0.02173	4	 Object	 diff	0
91.38656	1.000362	0.02106	4	 Object	 same	0
92.386922	1.000337	0.020325	4	 Object	 diff	0
93.387259	1.000758	0.019619	4	 Object	 diff	0
94.388017	1.000349	0.018513	4	 Object	 diff	0
95.388366	1.000385	0.017734	4	 Object	 diff	0
96.388751	1.000339	0.016941	4	 Object	 diff	0
97.38909	1.000355	0.01623	4	 Object	 diff	0
98.389445	1.000351	0.015496	4	 Object	 diff	0
99.389796	1.000333	0.014778	4	 Object	 diff	0
100.390129	7.989803	100.390129	 fix	 fix	 fix	 n/a
108.379932	1.000697	0.021169	5	 Scene	 diff	0
109.380629	1.000255	0.020178	5	 Scene	 diff	0
110.380884	1.000338	0.019752	5	 Scene	 same	0
111.381222	1.000363	0.018703	5	 Scene	 diff	0
112.381585	1.000387	0.017989	5	 Scene	 diff	0
113.381972	1.000361	0.017182	5	 Scene	 same	0
114.382333	1.000362	0.016436	5	 Scene	 diff	0
115.382695	1.000358	0.015705	5	 Scene	 diff	0
116.383053	1.000353	0.014984	5	 Scene	 diff	0
117.383406	1.00037	0.014305	5	 Scene	 diff	0
118.383776	1.000364	0.013451	5	 Scene	 diff	0
119.38414	1.000366	0.012703	5	 Scene	 diff	0
120.384506	1.000357	0.011951	5	 Scene	 diff	0
121.384863	1.000357	0.011203	5	 Scene	 diff	0
122.38522	1.000356	0.010463	5	 Scene	 diff	0
123.385576	1.000338	0.009705	5	 Scene	 diff	0
124.385914	7.994062	124.385914	 fix	 fix	 fix	 n/a
132.379976	1.00037	0.012584	6	 Object	 diff	0
133.380346	1.000371	0.011105	6	 Object	 same	0
134.380717	1.000325	0.010327	6	 Object	 diff	0
135.381042	1.000948	0.009647	6	 Object	 diff	0
136.38199	1.000339	0.025024	6	 Object	 diff	0
137.382329	1.00035	0.024277	6	 Object	 same	0
138.382679	1.000357	0.023535	6	 Object	 diff	0
139.383036	1.000352	0.022803	6	 Object	 diff	0
140.383388	1.000324	0.022048	6	 Object	 diff	0
141.383712	1.000357	0.021349	6	 Object	 diff	0
142.384069	1.000358	0.020635	6	 Object	 diff	0
143.384427	1.000353	0.019863	6	 Object	 diff	0
144.38478	1.000358	0.019111	6	 Object	 diff	0
145.385138	1.000356	0.018681	6	 Object	 diff	0
146.385494	1.000367	0.017623	6	 Object	 diff	0
147.385861	1.000343	0.016873	6	 Object	 diff	0
148.386204	7.993811	148.386204	 fix	 fix	 fix	 n/a
156.380015	1.000364	0.019272	7	 Scene	 diff	0
157.380379	1.000372	0.018508	7	 Scene	 diff	0
158.380751	1.000398	0.017772	7	 Scene	 diff	0
159.381149	1.000369	0.016968	7	 Scene	 diff	0
160.381518	1.00037	0.016237	7	 Scene	 same	0
161.381888	1.000371	0.015488	7	 Scene	 diff	0
162.382259	1.00037	0.014807	7	 Scene	 diff	0
163.382629	1.004651	0.013942	7	 Scene	 same	1
164.38728	1.00052	0.008866	7	 Scene	 diff	0
165.3878	1.000331	0.02467	7	 Scene	 diff	0
166.388131	1.000368	0.023974	7	 Scene	 diff	0
167.388499	1.000365	0.023225	7	 Scene	 diff	0
168.388864	1.000368	0.022449	7	 Scene	 diff	0
169.389232	1.00037	0.021741	7	 Scene	 diff	0
170.389602	1.000352	0.020999	7	 Scene	 diff	0
171.389954	1.000342	0.020223	7	 Scene	 diff	0
172.390296	7.989763	172.390296	 fix	 fix	 fix	 n/a
180.380059	1.000359	0.009973	8	 Object	 diff	0
181.380418	1.000359	0.025891	8	 Object	 diff	0
182.380777	1.000372	0.025161	8	 Object	 diff	0
183.381149	1.000352	0.024404	8	 Object	 diff	0
184.381501	1.000383	0.023688	8	 Object	 same	0
185.381884	1.00037	0.02292	8	 Object	 diff	0
186.382254	1.00036	0.022161	8	 Object	 diff	0
187.382614	1.000363	0.0214	8	 Object	 diff	0
188.382977	1.000366	0.0207	8	 Object	 diff	0
189.383343	1.00036	0.019894	8	 Object	 diff	0
190.383703	1.000342	0.01928	8	 Object	 same	0
191.384045	1.000366	0.018734	8	 Object	 diff	0
192.384411	1.000389	0.017658	8	 Object	 diff	0
193.3848	1.000355	0.016888	8	 Object	 diff	0
194.385155	1.000372	0.016159	8	 Object	 diff	0
195.385527	1.000321	0.015439	8	 Object	 diff	0
196.385848	7.99425	196.385848	 fix	 fix	 fix	 n/a
204.380098	1.000379	0.017395	9	 Scene	 diff	0
205.380477	1.000362	0.016589	9	 Scene	 diff	0
206.380839	1.000362	0.015871	9	 Scene	 diff	0
207.381201	1.000376	0.015261	9	 Scene	 diff	0
208.381577	1.000465	0.014331	9	 Scene	 diff	0
209.382042	1.00036	0.013487	9	 Scene	 diff	0
210.382402	1.000363	0.012739	9	 Scene	 diff	0
211.382765	1.000371	0.012081	9	 Scene	 diff	0
212.383136	1.000372	0.011624	9	 Scene	 diff	0
213.383508	1.000375	0.010448	9	 Scene	 diff	0
214.383883	1.000476	0.009686	9	 Scene	 diff	0
215.384359	1.000361	0.025581	9	 Scene	 diff	0
216.38472	1.000372	0.024809	9	 Scene	 same	0
217.385092	1.000371	0.024037	9	 Scene	 diff	0
218.385463	1.004573	0.023295	9	 Scene	 same	1
219.390036	1.000316	0.018323	9	 Scene	 diff	0
220.390352	7.98979	220.390352	 fix	 fix	 fix	 n/a
228.380142	1.000361	0.02478	10	 Object	 diff	0
229.380503	1.00037	0.024044	10	 Object	 diff	0
230.380873	1.000343	0.023269	10	 Object	 diff	0
231.381216	1.000365	0.022582	10	 Object	 diff	0
232.381581	1.000394	0.021827	10	 Object	 diff	0
233.381975	1.000374	0.021043	10	 Object	 same	0
234.382349	1.000374	0.020483	10	 Object	 diff	0
235.382723	1.000376	0.019592	10	 Object	 same	0
236.383099	1.000363	0.018685	10	 Object	 diff	0
237.383462	1.000375	0.017941	10	 Object	 diff	0
238.383837	1.000376	0.017176	10	 Object	 diff	0
239.384213	1.00038	0.016433	10	 Object	 diff	0
240.384593	1.000379	0.015689	10	 Object	 diff	0
241.384972	1.000349	0.014984	10	 Object	 diff	0
242.385321	1.000382	0.014135	10	 Object	 diff	0
243.385703	1.000343	0.013386	10	 Object	 diff	0
244.386046	7.994141	244.386046	 fix	 fix	 fix	 n/a
252.380187	1.000372	0.015495	11	 Scene	 diff	0
253.380559	1.00038	0.014674	11	 Scene	 diff	0
254.380939	1.000374	0.013905	11	 Scene	 diff	0
255.381313	1.000373	0.013366	11	 Scene	 diff	0
256.381686	1.000392	0.013142	11	 Scene	 diff	0
257.382078	1.000368	0.011615	11	 Scene	 diff	0
258.382446	1.000377	0.010855	11	 Scene	 diff	0
259.382823	1.000368	0.010107	11	 Scene	 diff	0
260.383191	1.000504	0.009312	11	 Scene	 diff	0
261.383695	1.000392	0.025139	11	 Scene	 diff	0
262.384087	1.000362	0.024425	11	 Scene	 diff	0
263.384449	1.000353	0.02367	11	 Scene	 same	0
264.384802	1.000381	0.022901	11	 Scene	 diff	0
265.385183	1.000389	0.022207	11	 Scene	 same	0
266.385572	1.000371	0.021617	11	 Scene	 diff	0
267.385943	1.000361	0.020604	11	 Scene	 diff	0
268.386304	7.993927	268.386304	 fix	 fix	 fix	 n/a
276.380231	1.000374	0.022968	12	 Object	 diff	0
277.380605	1.000378	0.022214	12	 Object	 diff	0
278.380983	1.000371	0.021283	12	 Object	 diff	0
279.381354	1.000375	0.02076	12	 Object	 diff	0
280.381729	1.00039	0.01977	12	 Object	 diff	0
281.382119	1.000376	0.018992	12	 Object	 diff	0
282.382495	1.000363	0.018231	12	 Object	 same	0
283.382858	1.000371	0.017491	12	 Object	 diff	0
284.383229	1.000379	0.016767	12	 Object	 diff	0
285.383608	1.000372	0.016089	12	 Object	 diff	0
286.38398	1.000379	0.015203	12	 Object	 diff	0
287.384359	1.000375	0.014444	12	 Object	 same	0
288.384734	1.00038	0.013676	12	 Object	 diff	0
289.385114	1.000391	0.012996	12	 Object	 diff	0
290.385505	1.000382	0.012146	12	 Object	 diff	0
291.385887	1.000341	0.011357	12	 Object	 diff	0
292.386228	12	292.386228	 fix	 fix	 fix	 n/a
