onset	duration	run#	block_kind	current_block	actual_TR	stim_n/ame	fixation_kind	response	RT
0.01	12.0	2	fix	n/a	0	n/a	white	n/a	n/a
12.01	1.99	2	NC	4	6	n/a	red	0	9999
14	2.0	2	NC	4	7	n/a	green	1	482.5
16	2.0	2	NC	4	8	n/a	red	0	9999
18	2.0	2	NC	4	9	n/a	red	0	9999
20	2.0	2	NC	4	10	n/a	green	1	429.69
22	2.0	2	NC	4	11	n/a	red	0	9999
24	2.0	2	NC	4	12	n/a	red	0	9999
26	2.02	2	NC	4	13	n/a	red	0	9999
28.02	8.02	2	fix	n/a	14	n/a	white	n/a	n/a
36.04	1.96	2	Sp	1	18	n/a	red	0	9999
38	2.0	2	Sp	1	19	n/a	green	1	419.35
40	2.0	2	Sp	1	20	n/a	red	0	9999
42	2.0	2	Sp	1	21	n/a	red	0	9999
44	2.0	2	Sp	1	22	n/a	red	0	9999
46	2.0	2	Sp	1	23	n/a	green	1	454.12
48	2.0	2	Sp	1	24	n/a	red	0	9999
50	2.01	2	Sp	1	25	n/a	red	0	9999
52.01	8.02	2	fix	n/a	26	n/a	white	n/a	n/a
60.03	1.97	2	intersection	5	30	intersection4	red	0	9999
62	2.0	2	intersection	5	31	intersection1	red	0	9999
64	2.0	2	intersection	5	32	intersection2	red	0	9999
66	2.0	2	intersection	5	33	intersection3	green	1	524.73
68	2.0	2	intersection	5	34	intersection2	green	0	9999
70	2.0	2	intersection	5	35	intersection3	red	0	9999
72	2.0	2	intersection	5	36	intersection1	red	0	9999
74	2.01	2	intersection	5	37	intersection4	red	0	9999
76.01	8.03	2	fix	n/a	38	n/a	white	n/a	n/a
84.04	1.96	2	SpId	2	42	n/a	green	1	626.83
86	2.0	2	SpId	2	43	n/a	green	1	765.3
88	2.0	2	SpId	2	44	n/a	red	0	9999
90	2.0	2	SpId	2	45	n/a	red	0	9999
92	2.0	2	SpId	2	46	n/a	red	0	9999
94	2.0	2	SpId	2	47	n/a	red	0	9999
96	2.0	2	SpId	2	48	n/a	red	0	9999
98	2.0	2	SpId	2	49	n/a	red	0	9999
100	8.03	2	fix	n/a	50	n/a	white	n/a	n/a
108.03	1.97	2	ID	3	54	n/a	red	0	9999
110	2.0	2	ID	3	55	n/a	red	0	9999
112	2.0	2	ID	3	56	n/a	red	0	9999
114	2.0	2	ID	3	57	n/a	red	0	9999
116	2.0	2	ID	3	58	n/a	red	0	9999
118	2.0	2	ID	3	59	n/a	green	1	721.86
120	2.0	2	ID	3	60	n/a	green	1	577.92
122	2.01	2	ID	3	61	n/a	red	0	9999
124.01	8.03	2	fix	n/a	62	n/a	white	n/a	n/a
132.04	1.96	2	hallway	7	66	hallway4	red	0	9999
134	2.0	2	hallway	7	67	hallway3	red	0	9999
136	2.0	2	hallway	7	68	hallway2	red	0	9999
138	2.0	2	hallway	7	69	hallway1	red	0	9999
140	2.0	2	hallway	7	70	hallway4	green	1	520.56
142	2.0	2	hallway	7	71	hallway3	red	0	9999
144	2.0	2	hallway	7	72	hallway1	green	1	562.21
146	2.02	2	hallway	7	73	hallway2	red	0	9999
148.02	8.03	2	fix	n/a	74	n/a	white	n/a	n/a
156.05	1.95	2	scrambledobj	9	78	scrambledobj3	red	0	9999
158	2.0	2	scrambledobj	9	79	scrambledobj4	red	0	9999
160	2.0	2	scrambledobj	9	80	scrambledobj1	green	1	600.25
162	2.0	2	scrambledobj	9	81	scrambledobj2	green	1	880.99
164	2.0	2	scrambledobj	9	82	scrambledobj2	red	0	9999
166	2.0	2	scrambledobj	9	83	scrambledobj4	red	0	9999
168	2.0	2	scrambledobj	9	84	scrambledobj1	red	0	9999
170	2.01	2	scrambledobj	9	85	scrambledobj3	red	0	9999
172.01	8.03	2	fix	n/a	86	n/a	white	n/a	n/a
180.04	1.96	2	longroad	6	90	longroad3	green	1	582.04
182	2.0	2	longroad	6	91	longroad4	red	0	9999
184	2.0	2	longroad	6	92	longroad2	red	0	9999
186	2.0	2	longroad	6	93	longroad1	green	1	545.06
188	2.0	2	longroad	6	94	longroad2	red	0	9999
190	2.0	2	longroad	6	95	longroad3	red	0	9999
192	2.0	2	longroad	6	96	longroad1	red	0	9999
194	2.02	2	longroad	6	97	longroad4	red	0	9999
196.02	8.03	2	fix	n/a	98	n/a	white	n/a	n/a
204.05	1.95	2	wkobj	8	102	wkobj1	red	0	9999
206	2.0	2	wkobj	8	103	wkobj2	red	0	9999
208	2.0	2	wkobj	8	104	wkobj3	red	0	9999
210	2.0	2	wkobj	8	105	wkobj4	red	0	9999
212	2.0	2	wkobj	8	106	wkobj3	green	1	555.03
214	2.0	2	wkobj	8	107	wkobj4	red	0	9999
216	2.0	2	wkobj	8	108	wkobj2	red	0	9999
218	2.01	2	wkobj	8	109	wkobj1	green	1	565.78
220.01	8.03	2	fix	n/a	110	n/a	white	n/a	n/a
228.04	1.96	2	intersection	5	114	intersection4	red	0	9999
230	2.0	2	intersection	5	115	intersection3	green	1	538.52
232	2.0	2	intersection	5	116	intersection2	green	0	9999
234	2.0	2	intersection	5	117	intersection1	red	0	9999
236	2.0	2	intersection	5	118	intersection3	red	0	9999
238	2.0	2	intersection	5	119	intersection4	red	0	9999
240	2.0	2	intersection	5	120	intersection2	red	0	9999
242	2.02	2	intersection	5	121	intersection1	red	0	9999
244.02	8.03	2	fix	n/a	122	n/a	white	n/a	n/a
252.05	1.95	2	NC	4	126	n/a	green	1	576.74
254	2.0	2	NC	4	127	n/a	red	0	9999
256	2.0	2	NC	4	128	n/a	green	1	524.47
258	2.0	2	NC	4	129	n/a	red	0	9999
260	2.0	2	NC	4	130	n/a	red	0	9999
262	2.0	2	NC	4	131	n/a	red	0	9999
264	2.0	2	NC	4	132	n/a	red	0	9999
266	2.01	2	NC	4	133	n/a	red	0	9999
268.01	8.03	2	fix	n/a	134	n/a	white	n/a	n/a
276.04	1.96	2	longroad	6	138	longroad4	red	0	9999
278	2.0	2	longroad	6	139	longroad3	green	1	675.84
280	2.0	2	longroad	6	140	longroad2	red	0	9999
282	2.0	2	longroad	6	141	longroad1	red	0	9999
284	2.0	2	longroad	6	142	longroad1	red	0	9999
286	2.0	2	longroad	6	143	longroad2	green	1	631.3
288	2.0	2	longroad	6	144	longroad4	red	0	9999
290	2.01	2	longroad	6	145	longroad3	red	0	9999
292.01	8.03	2	fix	n/a	146	n/a	white	n/a	n/a
300.04	1.96	2	scrambledobj	9	150	scrambledobj2	red	0	9999
302	2.0	2	scrambledobj	9	151	scrambledobj4	green	1	404.51
304	2.0	2	scrambledobj	9	152	scrambledobj1	red	0	9999
306	2.0	2	scrambledobj	9	153	scrambledobj3	red	0	9999
308	2.0	2	scrambledobj	9	154	scrambledobj2	green	1	639.3
310	2.0	2	scrambledobj	9	155	scrambledobj3	red	0	9999
312	2.0	2	scrambledobj	9	156	scrambledobj1	red	0	9999
314	2.0	2	scrambledobj	9	157	scrambledobj4	red	0	9999
316	8.04	2	fix	n/a	158	n/a	white	n/a	n/a
324.04	1.96	2	SpId	2	162	n/a	red	0	9999
326	2.0	2	SpId	2	163	n/a	red	0	9999
328	2.0	2	SpId	2	164	n/a	green	1	486.47
330	2.0	2	SpId	2	165	n/a	red	0	9999
332	2.0	2	SpId	2	166	n/a	green	1	544.42
334	2.0	2	SpId	2	167	n/a	red	0	9999
336	2.0	2	SpId	2	168	n/a	red	0	9999
338	2.01	2	SpId	2	169	n/a	red	0	9999
340.01	8.04	2	fix	n/a	170	n/a	white	n/a	n/a
348.05	1.95	2	hallway	7	174	hallway4	red	0	9999
350	2.0	2	hallway	7	175	hallway1	red	0	9999
352	2.0	2	hallway	7	176	hallway2	green	1	526.95
354	2.0	2	hallway	7	177	hallway3	red	0	9999
356	2.0	2	hallway	7	178	hallway1	red	0	9999
358	2.0	2	hallway	7	179	hallway2	red	0	9999
360	2.0	2	hallway	7	180	hallway4	red	0	9999
362	2.02	2	hallway	7	181	hallway3	green	1	451.01
364.02	8.03	2	fix	n/a	182	n/a	white	n/a	n/a
372.05	1.95	2	Sp	1	186	n/a	red	0	9999
374	2.0	2	Sp	1	187	n/a	red	0	9999
376	2.0	2	Sp	1	188	n/a	red	0	9999
378	2.0	2	Sp	1	189	n/a	red	0	9999
380	2.0	2	Sp	1	190	n/a	red	0	9999
382	2.0	2	Sp	1	191	n/a	green	1	563.01
384	2.0	2	Sp	1	192	n/a	green	1	843.02
386	2.01	2	Sp	1	193	n/a	red	0	9999
388.01	8.04	2	fix	n/a	194	n/a	white	n/a	n/a
396.05	1.95	2	wkobj	8	198	wkobj3	green	1	644.92
398	2.0	2	wkobj	8	199	wkobj2	red	0	9999
400	2.0	2	wkobj	8	200	wkobj1	red	0	9999
402	2.0	2	wkobj	8	201	wkobj4	green	1	561.47
404	2.0	2	wkobj	8	202	wkobj1	red	0	9999
406	2.0	2	wkobj	8	203	wkobj3	red	0	9999
408	2.0	2	wkobj	8	204	wkobj4	red	0	9999
410	2.02	2	wkobj	8	205	wkobj2	red	0	9999
412.02	8.03	2	fix	n/a	206	n/a	white	n/a	n/a
420.05	1.95	2	ID	3	210	n/a	red	0	9999
422	2.0	2	ID	3	211	n/a	red	0	9999
424	2.0	2	ID	3	212	n/a	green	1	586.3
426	2.0	2	ID	3	213	n/a	red	0	9999
428	2.0	2	ID	3	214	n/a	green	1	571.64
430	2.0	2	ID	3	215	n/a	red	0	9999
432	2.0	2	ID	3	216	n/a	red	0	9999
434	2.01	2	ID	3	217	n/a	red	0	9999
436.01	12.03	2	fix	n/a	218	n/a	white	n/a	n/a
448.04	12	2	EndFix	n/a	224	n/a	white	n/a	n/a
