onset	duration	 pic_onset	 block	 block_kind	 condition	 response
0.360699	12.024903	0.378855	 fix	 fix	 fix	 n/a
12.385602	1.000512	0.021983	1	 Scene	 diff	0
13.386114	1.000508	0.021067	1	 Scene	 diff	0
14.386622	1.00034	0.02017	1	 Scene	 same	0
15.386962	1.000397	0.019462	1	 Scene	 diff	0
16.387359	1.00038	0.018672	1	 Scene	 diff	0
17.387739	1.000354	0.01797	1	 Scene	 diff	0
18.388093	1.000356	0.017177	1	 Scene	 diff	0
19.388449	1.000345	0.016416	1	 Scene	 diff	0
20.388794	1.000636	0.01569	1	 Scene	 same	0
21.38943	1.000316	0.015091	1	 Scene	 diff	0
22.389746	1.000354	0.013964	1	 Scene	 diff	0
23.3901	1.000354	0.013215	1	 Scene	 diff	0
24.390454	1.000349	0.012491	1	 Scene	 diff	0
25.390803	1.000351	0.01198	1	 Scene	 diff	0
26.391154	1.000616	0.010988	1	 Scene	 diff	0
27.39177	1.0011	0.009999	1	 Scene	 diff	0
28.39287	7.989791	28.39287	 fix	 fix	 fix	 n/a
36.382661	1.000355	0.015674	2	 Object	 diff	0
37.383016	1.00035	0.014958	2	 Object	 diff	0
38.383366	1.000333	0.014181	2	 Object	 diff	0
39.383699	1.000357	0.013459	2	 Object	 diff	0
40.384056	1.000348	0.012726	2	 Object	 diff	0
41.384404	1.000368	0.012002	2	 Object	 same	0
42.384772	1.000371	0.011917	2	 Object	 diff	0
43.385143	1.000356	0.010462	2	 Object	 diff	0
44.385499	1.000369	0.009699	2	 Object	 diff	0
45.385868	1.000375	0.025693	2	 Object	 diff	0
46.386243	1.000368	0.024954	2	 Object	 diff	0
47.386611	1.000355	0.024201	2	 Object	 diff	0
48.386966	1.000544	0.023491	2	 Object	 diff	0
49.38751	1.000362	0.022491	2	 Object	 diff	0
50.387872	1.000363	0.021728	2	 Object	 same	0
51.388235	1.000345	0.020983	2	 Object	 diff	0
52.38858	7.99412	52.38858	 fix	 fix	 fix	 n/a
60.3827	1.000375	0.023047	3	 Scene	 diff	0
61.383075	1.000355	0.022287	3	 Scene	 diff	0
62.38343	1.000362	0.021566	3	 Scene	 diff	0
63.383792	1.000368	0.020811	3	 Scene	 same	0
64.38416	1.000371	0.020047	3	 Scene	 diff	0
65.384531	1.000351	0.019311	3	 Scene	 diff	0
66.384882	1.000345	0.018563	3	 Scene	 same	0
67.385227	1.000612	0.01783	3	 Scene	 diff	0
68.385839	1.000369	0.016948	3	 Scene	 diff	0
69.386208	1.000374	0.0161	3	 Scene	 diff	0
70.386582	1.000516	0.015362	3	 Scene	 diff	0
71.387098	1.000377	0.014862	3	 Scene	 diff	0
72.387475	1.000363	0.013655	3	 Scene	 diff	0
73.387838	1.000369	0.012911	3	 Scene	 diff	0
74.388207	1.000352	0.012135	3	 Scene	 diff	0
75.388559	1.000359	0.011887	3	 Scene	 diff	0
76.388918	7.993826	76.388918	 fix	 fix	 fix	 n/a
84.382744	1.000422	0.013761	4	 Object	 diff	0
85.383166	1.000377	0.012961	4	 Object	 diff	0
86.383543	1.000331	0.012207	4	 Object	 diff	0
87.383874	1.000357	0.011927	4	 Object	 diff	0
88.384231	1.000369	0.010721	4	 Object	 same	0
89.3846	1.000378	0.009964	4	 Object	 diff	0
90.384978	1.000338	0.025943	4	 Object	 diff	0
91.385316	1.000365	0.025237	4	 Object	 diff	0
92.385681	1.000357	0.024476	4	 Object	 diff	0
93.386038	1.00037	0.023728	4	 Object	 diff	0
94.386408	1.000365	0.022968	4	 Object	 diff	0
95.386773	1.000354	0.022277	4	 Object	 diff	0
96.387127	1.000359	0.021461	4	 Object	 diff	0
97.387486	1.000381	0.02069	4	 Object	 same	0
98.387867	1.000367	0.019962	4	 Object	 diff	0
99.388234	1.000362	0.019755	4	 Object	 diff	0
100.388596	7.994212	100.388596	 fix	 fix	 fix	 n/a
108.382808	1.000356	0.021155	5	 Scene	 diff	0
109.383164	1.000431	0.020412	5	 Scene	 diff	0
110.383595	1.000491	0.019605	5	 Scene	 diff	0
111.384086	1.000683	0.018742	5	 Scene	 diff	0
112.384769	1.005193	0.017668	5	 Scene	 same	1
113.389962	1.000774	0.011998	5	 Scene	 diff	0
114.390736	1.000328	0.010907	5	 Scene	 same	0
115.391064	1.000341	0.010161	5	 Scene	 diff	0
116.391405	1.00032	0.02615	5	 Scene	 diff	0
117.391725	1.000481	0.025457	5	 Scene	 diff	0
118.392206	1.000329	0.024623	5	 Scene	 diff	0
119.392535	1.000352	0.023893	5	 Scene	 diff	0
120.392887	1.000332	0.023143	5	 Scene	 diff	0
121.393219	1.000345	0.022397	5	 Scene	 diff	0
122.393564	1.000341	0.021756	5	 Scene	 diff	0
123.393905	1.000328	0.020984	5	 Scene	 diff	0
124.394233	7.988623	124.394233	 fix	 fix	 fix	 n/a
132.382856	1.00034	0.012459	6	 Object	 diff	0
133.383196	1.004565	0.011115	6	 Object	 same	1
134.387761	1.000287	0.024759	6	 Object	 diff	0
135.388048	1.000363	0.022425	6	 Object	 diff	0
136.388411	1.000393	0.021605	6	 Object	 diff	0
137.388804	1.000336	0.020703	6	 Object	 diff	0
138.38914	1.000345	0.019923	6	 Object	 diff	0
139.389485	1.000389	0.019461	6	 Object	 diff	0
140.389874	1.000355	0.018452	6	 Object	 diff	0
141.390229	1.004643	0.017684	6	 Object	 same	1
142.394872	1.000298	0.012603	6	 Object	 diff	0
143.39517	1.000476	0.011977	6	 Object	 diff	0
144.395646	1.000335	0.011084	6	 Object	 diff	0
145.395981	1.00036	0.010384	6	 Object	 diff	0
146.396341	1.000331	0.026318	6	 Object	 diff	0
147.396672	1.000314	0.025611	6	 Object	 diff	0
148.396986	7.985903	148.396986	 fix	 fix	 fix	 n/a
156.382889	1.000333	0.019278	7	 Scene	 diff	0
157.383222	1.000364	0.018554	7	 Scene	 diff	0
158.383586	1.000387	0.017782	7	 Scene	 diff	0
159.383973	1.000332	0.017043	7	 Scene	 diff	0
160.384305	1.000363	0.016308	7	 Scene	 diff	0
161.384668	1.000329	0.015591	7	 Scene	 diff	0
162.384997	1.00036	0.014966	7	 Scene	 diff	0
163.385357	1.000344	0.014097	7	 Scene	 diff	0
164.385701	1.000323	0.013363	7	 Scene	 diff	0
165.386024	1.00583	0.012648	7	 Scene	 same	1
166.391854	1.000317	0.023112	7	 Scene	 diff	0
167.392171	1.000368	0.022401	7	 Scene	 diff	0
168.392539	1.000334	0.021732	7	 Scene	 same	0
169.392873	1.000327	0.020979	7	 Scene	 diff	0
170.3932	1.000339	0.020417	7	 Scene	 diff	0
171.393539	1.000323	0.019769	7	 Scene	 diff	0
172.393862	7.989057	172.393862	 fix	 fix	 fix	 n/a
180.382919	1.000344	0.010053	8	 Object	 diff	0
181.383263	1.000338	0.025996	8	 Object	 diff	0
182.383601	1.00034	0.02525	8	 Object	 diff	0
183.383941	1.000329	0.024545	8	 Object	 diff	0
184.38427	1.000312	0.023797	8	 Object	 diff	0
185.384582	1.000359	0.023106	8	 Object	 diff	0
186.384941	1.000336	0.022371	8	 Object	 same	0
187.385277	1.000343	0.021672	8	 Object	 diff	0
188.38562	1.000355	0.020923	8	 Object	 diff	0
189.385975	1.000355	0.020878	8	 Object	 diff	0
190.38633	1.000344	0.019389	8	 Object	 same	0
191.386674	1.000372	0.01867	8	 Object	 diff	0
192.387046	1.000355	0.017908	8	 Object	 diff	0
193.387401	1.000356	0.017172	8	 Object	 diff	0
194.387757	1.00036	0.016431	8	 Object	 diff	0
195.388117	1.000367	0.015785	8	 Object	 diff	0
196.388484	7.994483	196.388484	 fix	 fix	 fix	 n/a
204.382967	1.000372	0.017365	9	 Scene	 diff	0
205.383339	1.000363	0.016611	9	 Scene	 same	0
206.383702	1.000343	0.015874	9	 Scene	 diff	0
207.384045	1.000335	0.015128	9	 Scene	 diff	0
208.38438	1.000376	0.014403	9	 Scene	 diff	0
209.384756	1.000355	0.013658	9	 Scene	 diff	0
210.385111	1.000323	0.012904	9	 Scene	 diff	0
211.385434	1.000338	0.012294	9	 Scene	 diff	0
212.385772	1.000337	0.012056	9	 Scene	 same	0
213.386109	1.000343	0.010758	9	 Scene	 diff	0
214.386452	1.000366	0.010007	9	 Scene	 diff	0
215.386818	1.000341	0.02598	9	 Scene	 diff	0
216.387159	1.000382	0.025269	9	 Scene	 diff	0
217.387541	1.000343	0.024516	9	 Scene	 diff	0
218.387884	1.00036	0.023767	9	 Scene	 diff	0
219.388244	1.000358	0.023041	9	 Scene	 diff	0
220.388602	7.994403	220.388602	 fix	 fix	 fix	 n/a
228.383005	1.000336	0.024832	10	 Object	 diff	0
229.383341	1.000375	0.024103	10	 Object	 diff	0
230.383716	1.005861	0.023255	10	 Object	 same	1
231.389577	1.000373	0.016972	10	 Object	 diff	0
232.38995	1.000372	0.016258	10	 Object	 diff	0
233.390322	1.000404	0.015601	10	 Object	 diff	0
234.390726	1.000394	0.014704	10	 Object	 diff	0
235.39112	1.000352	0.013922	10	 Object	 same	0
236.391472	1.000352	0.013196	10	 Object	 diff	0
237.391824	1.000386	0.012816	10	 Object	 diff	0
238.39221	1.000342	0.012279	10	 Object	 diff	0
239.392552	1.00038	0.010956	10	 Object	 diff	0
240.392932	1.000354	0.01012	10	 Object	 diff	0
241.393286	1.000402	0.026171	10	 Object	 diff	0
242.393688	1.000464	0.025375	10	 Object	 diff	0
243.394152	1.000327	0.024556	10	 Object	 diff	0
244.394479	7.988566	244.394479	 fix	 fix	 fix	 n/a
252.383045	1.000342	0.015473	11	 Scene	 diff	0
253.383387	1.000361	0.014727	11	 Scene	 same	0
254.383748	1.000375	0.013979	11	 Scene	 diff	0
255.384123	1.000415	0.013648	11	 Scene	 diff	0
256.384538	1.000361	0.012444	11	 Scene	 diff	0
257.384899	1.000356	0.011702	11	 Scene	 diff	0
258.385255	1.000395	0.010944	11	 Scene	 diff	0
259.38565	1.000382	0.010158	11	 Scene	 diff	0
260.386032	1.00455	0.009437	11	 Scene	 same	1
261.390582	1.000337	0.021174	11	 Scene	 diff	0
262.390919	1.000391	0.020503	11	 Scene	 diff	0
263.39131	1.000341	0.019627	11	 Scene	 diff	0
264.391651	1.000336	0.018916	11	 Scene	 diff	0
265.391987	1.000393	0.018182	11	 Scene	 diff	0
266.39238	1.00035	0.017422	11	 Scene	 diff	0
267.39273	1.000364	0.016703	11	 Scene	 diff	0
268.393094	7.990002	268.393094	 fix	 fix	 fix	 n/a
276.383096	1.000391	0.022882	12	 Object	 diff	0
277.383487	1.000391	0.022125	12	 Object	 diff	0
278.383878	1.004588	0.02129	12	 Object	 same	1
279.388466	1.000434	0.016322	12	 Object	 diff	0
280.3889	1.000356	0.015474	12	 Object	 diff	0
281.389256	1.000381	0.014828	12	 Object	 same	0
282.389637	1.00041	0.01397	12	 Object	 diff	0
283.390047	1.000366	0.013782	12	 Object	 diff	0
284.390413	1.000348	0.013159	12	 Object	 diff	0
285.390761	1.000383	0.0117	12	 Object	 diff	0
286.391144	1.000381	0.010925	12	 Object	 diff	0
287.391525	1.000363	0.010152	12	 Object	 diff	0
288.391888	1.000383	0.009413	12	 Object	 diff	0
289.392271	1.000381	0.025367	12	 Object	 diff	0
290.392652	1.000332	0.024602	12	 Object	 diff	0
291.392984	1.000535	0.023885	12	 Object	 diff	0
292.393519	12	292.393519	 fix	 fix	 fix	 n/a
