onset	duration	run#	block_kind	current_block	actual_TR	stim_n/ame	fixation_kind	response	RT
0	12.01	2	fix	n/a	0	n/a	white	n/a	n/a
12.01	1.99	2	longroad	6	6	longroad1	red	0	9999
14	2.0	2	longroad	6	7	longroad4	red	0	9999
16	2.0	2	longroad	6	8	longroad2	red	0	9999
18	2.0	2	longroad	6	9	longroad3	green	1	833.75
20	2.0	2	longroad	6	10	longroad4	green	1	825.81
22	2.0	2	longroad	6	11	longroad2	red	0	9999
24	2.0	2	longroad	6	12	longroad1	red	0	9999
26	2.01	2	longroad	6	13	longroad3	red	0	9999
28.01	8.02	2	fix	n/a	14	n/a	white	n/a	n/a
36.03	1.97	2	hallway	7	18	hallway3	red	0	9999
38	2.0	2	hallway	7	19	hallway2	red	0	9999
40	2.0	2	hallway	7	20	hallway4	red	0	9999
42	2.0	2	hallway	7	21	hallway1	green	1	635.05
44	2.0	2	hallway	7	22	hallway3	red	0	9999
46	2.0	2	hallway	7	23	hallway1	red	0	9999
48	2.0	2	hallway	7	24	hallway4	red	0	9999
50	2.02	2	hallway	7	25	hallway2	green	1	669.87
52.02	8.02	2	fix	n/a	26	n/a	white	n/a	n/a
60.04	1.96	2	wkobj	8	30	wkobj3	red	0	9999
62	2.0	2	wkobj	8	31	wkobj1	red	0	9999
64	2.0	2	wkobj	8	32	wkobj4	green	1	723.09
66	2.0	2	wkobj	8	33	wkobj2	green	1	803.8
68	2.0	2	wkobj	8	34	wkobj4	red	0	9999
70	2.0	2	wkobj	8	35	wkobj2	red	0	9999
72	2.0	2	wkobj	8	36	wkobj1	red	0	9999
74	2.01	2	wkobj	8	37	wkobj3	red	0	9999
76.01	8.02	2	fix	n/a	38	n/a	white	n/a	n/a
84.03	1.97	2	scrambledobj	9	42	scrambledobj3	green	1	737.08
86	2.0	2	scrambledobj	9	43	scrambledobj2	red	0	9999
88	2.0	2	scrambledobj	9	44	scrambledobj4	red	0	9999
90	2.0	2	scrambledobj	9	45	scrambledobj1	red	0	9999
92	2.0	2	scrambledobj	9	46	scrambledobj3	red	0	9999
94	2.0	2	scrambledobj	9	47	scrambledobj2	red	0	9999
96	2.0	2	scrambledobj	9	48	scrambledobj4	red	0	9999
98	2.01	2	scrambledobj	9	49	scrambledobj1	green	1	614.82
100.01	8.03	2	fix	n/a	50	n/a	white	n/a	n/a
108.04	1.96	2	ID	3	54	n/a	red	0	9999
110	2.0	2	ID	3	55	n/a	green	1	619.9
112	2.0	2	ID	3	56	n/a	red	0	9999
114	2.0	2	ID	3	57	n/a	green	1	653.22
116	2.0	2	ID	3	58	n/a	red	0	9999
118	2.0	2	ID	3	59	n/a	red	0	9999
120	2.0	2	ID	3	60	n/a	red	0	9999
122	2.01	2	ID	3	61	n/a	red	0	9999
124.01	8.02	2	fix	n/a	62	n/a	white	n/a	n/a
132.03	1.97	2	NC	4	66	n/a	green	1	738.85
134	2.0	2	NC	4	67	n/a	red	0	9999
136	2.0	2	NC	4	68	n/a	green	1	589.84
138	2.0	2	NC	4	69	n/a	red	0	9999
140	2.0	2	NC	4	70	n/a	red	0	9999
142	2.0	2	NC	4	71	n/a	red	0	9999
144	2.0	2	NC	4	72	n/a	red	0	9999
146	2.01	2	NC	4	73	n/a	red	0	9999
148.01	8.03	2	fix	n/a	74	n/a	white	n/a	n/a
156.04	1.96	2	Sp	1	78	n/a	red	0	9999
158	2.0	2	Sp	1	79	n/a	red	0	9999
160	2.0	2	Sp	1	80	n/a	red	0	9999
162	2.0	2	Sp	1	81	n/a	green	1	839.14
164	2.0	2	Sp	1	82	n/a	red	0	9999
166	2.0	2	Sp	1	83	n/a	red	0	9999
168	2.0	2	Sp	1	84	n/a	red	0	9999
170	2.0	2	Sp	1	85	n/a	green	1	850.3
172	8.03	2	fix	n/a	86	n/a	white	n/a	n/a
180.03	1.97	2	SpId	2	90	n/a	red	0	9999
182	2.0	2	SpId	2	91	n/a	red	0	9999
184	2.0	2	SpId	2	92	n/a	green	1	527.73
186	2.0	2	SpId	2	93	n/a	red	0	9999
188	2.0	2	SpId	2	94	n/a	red	0	9999
190	2.0	2	SpId	2	95	n/a	red	0	9999
192	2.0	2	SpId	2	96	n/a	red	0	9999
194	2.01	2	SpId	2	97	n/a	green	1	730.47
196.01	8.03	2	fix	n/a	98	n/a	white	n/a	n/a
204.04	1.96	2	intersection	5	102	intersection4	red	0	9999
206	2.0	2	intersection	5	103	intersection1	green	1	711.63
208	2.0	2	intersection	5	104	intersection2	green	1	711.43
210	2.0	2	intersection	5	105	intersection3	red	0	9999
212	2.0	2	intersection	5	106	intersection4	red	0	9999
214	2.0	2	intersection	5	107	intersection2	red	0	9999
216	2.0	2	intersection	5	108	intersection3	red	0	9999
218	2.02	2	intersection	5	109	intersection1	red	0	9999
220.02	8.57	2	fix	n/a	110	n/a	white	n/a	n/a
228.59	1.41	2	ID	3	114	n/a	red	0	9999
230	2.0	2	ID	3	115	n/a	red	0	9999
232	2.0	2	ID	3	116	n/a	red	0	9999
234	2.0	2	ID	3	117	n/a	green	1	626.93
236	2.0	2	ID	3	118	n/a	red	0	9999
238	2.0	2	ID	3	119	n/a	red	0	9999
240	2.0	2	ID	3	120	n/a	red	0	9999
242	2.01	2	ID	3	121	n/a	green	1	740.54
244.01	8.03	2	fix	n/a	122	n/a	white	n/a	n/a
252.04	1.96	2	SpId	2	126	n/a	green	1	1144.18
254	2.0	2	SpId	2	127	n/a	red	0	9999
256	2.0	2	SpId	2	128	n/a	red	0	9999
258	2.0	2	SpId	2	129	n/a	green	1	531.06
260	2.0	2	SpId	2	130	n/a	red	0	9999
262	2.0	2	SpId	2	131	n/a	red	0	9999
264	2.0	2	SpId	2	132	n/a	red	0	9999
266	2.02	2	SpId	2	133	n/a	red	0	9999
268.02	8.03	2	fix	n/a	134	n/a	white	n/a	n/a
276.05	1.95	2	scrambledobj	9	138	scrambledobj1	green	1	1047.92
278	2.0	2	scrambledobj	9	139	scrambledobj3	red	0	9999
280	2.0	2	scrambledobj	9	140	scrambledobj4	red	0	9999
282	2.0	2	scrambledobj	9	141	scrambledobj2	red	0	9999
284	2.0	2	scrambledobj	9	142	scrambledobj3	red	0	9999
286	2.0	2	scrambledobj	9	143	scrambledobj1	red	0	9999
288	2.0	2	scrambledobj	9	144	scrambledobj2	green	1	597.75
290	2.01	2	scrambledobj	9	145	scrambledobj4	red	0	9999
292.01	8.03	2	fix	n/a	146	n/a	white	n/a	n/a
300.04	1.96	2	wkobj	8	150	wkobj3	red	0	9999
302	2.0	2	wkobj	8	151	wkobj1	green	1	618.24
304	2.0	2	wkobj	8	152	wkobj2	red	0	9999
306	2.0	2	wkobj	8	153	wkobj4	green	1	668.48
308	2.0	2	wkobj	8	154	wkobj3	red	0	9999
310	2.0	2	wkobj	8	155	wkobj1	red	0	9999
312	2.0	2	wkobj	8	156	wkobj2	red	0	9999
314	2.01	2	wkobj	8	157	wkobj4	red	0	9999
316.01	8.04	2	fix	n/a	158	n/a	white	n/a	n/a
324.05	1.95	2	NC	4	162	n/a	green	1	881.38
326	2.0	2	NC	4	163	n/a	red	0	9999
328	2.0	2	NC	4	164	n/a	red	0	9999
330	2.0	2	NC	4	165	n/a	red	0	9999
332	2.0	2	NC	4	166	n/a	red	0	9999
334	2.0	2	NC	4	167	n/a	red	0	9999
336	2.0	2	NC	4	168	n/a	red	0	9999
338	2.01	2	NC	4	169	n/a	green	0	9999
340.01	8.03	2	fix	n/a	170	n/a	white	n/a	n/a
348.04	1.96	2	hallway	7	174	hallway3	red	0	9999
350	2.0	2	hallway	7	175	hallway4	red	0	9999
352	2.0	2	hallway	7	176	hallway1	green	1	509.41
354	2.0	2	hallway	7	177	hallway2	red	0	9999
356	2.0	2	hallway	7	178	hallway2	green	1	550.79
358	2.0	2	hallway	7	179	hallway1	red	0	9999
360	2.0	2	hallway	7	180	hallway3	red	0	9999
362	2.01	2	hallway	7	181	hallway4	red	0	9999
364.01	8.04	2	fix	n/a	182	n/a	white	n/a	n/a
372.05	1.95	2	intersection	5	186	intersection1	green	1	802.63
374	2.0	2	intersection	5	187	intersection3	green	1	589.01
376	2.0	2	intersection	5	188	intersection2	red	0	9999
378	2.0	2	intersection	5	189	intersection4	red	0	9999
380	2.0	2	intersection	5	190	intersection4	red	0	9999
382	2.0	2	intersection	5	191	intersection2	red	0	9999
384	2.0	2	intersection	5	192	intersection3	red	0	9999
386	2.0	2	intersection	5	193	intersection1	red	0	9999
388	8.04	2	fix	n/a	194	n/a	white	n/a	n/a
396.04	1.96	2	longroad	6	198	longroad1	green	1	891.32
398	2.0	2	longroad	6	199	longroad3	red	0	9999
400	2.0	2	longroad	6	200	longroad4	red	0	9999
402	2.0	2	longroad	6	201	longroad2	red	0	9999
404	2.0	2	longroad	6	202	longroad3	red	0	9999
406	2.0	2	longroad	6	203	longroad4	green	1	633.37
408	2.0	2	longroad	6	204	longroad2	red	0	9999
410	2.01	2	longroad	6	205	longroad1	red	0	9999
412.01	8.04	2	fix	n/a	206	n/a	white	n/a	n/a
420.05	1.95	2	Sp	1	210	n/a	green	1	980.58
422	2.0	2	Sp	1	211	n/a	red	0	9999
424	2.0	2	Sp	1	212	n/a	red	0	9999
426	2.0	2	Sp	1	213	n/a	red	0	9999
428	2.0	2	Sp	1	214	n/a	red	0	9999
430	2.0	2	Sp	1	215	n/a	green	1	1498.4
432	2.0	2	Sp	1	216	n/a	red	0	9999
434	2.02	2	Sp	1	217	n/a	red	0	9999
436.02	12.04	2	fix	n/a	218	n/a	white	n/a	n/a
448.06	12	2	EndFix	n/a	224	n/a	white	n/a	n/a
