onset	duration	 pic_onset	 block	 block_kind	 condition	 response
0.359034	12.021601	0.373579	 fix	 fix	 fix	 n/a
12.380635	1.000528	0.021672	1	 Object	 diff	0
13.381163	1.000324	0.020818	1	 Object	 diff	0
14.381487	1.000367	0.020025	1	 Object	 diff	0
15.381854	1.000375	0.01927	1	 Object	 diff	0
16.382229	1.000321	0.01855	1	 Object	 diff	0
17.38255	1.000429	0.017824	1	 Object	 diff	0
18.382979	1.000352	0.017	1	 Object	 diff	0
19.383331	1.000346	0.016247	1	 Object	 diff	0
20.383677	1.000356	0.015521	1	 Object	 diff	0
21.384033	1.000322	0.014786	1	 Object	 diff	0
22.384355	1.000348	0.014146	1	 Object	 diff	0
23.384703	1.005087	0.013326	1	 Object	 same	1
24.38979	1.000309	0.007799	1	 Object	 diff	0
25.390099	1.004463	0.023843	1	 Object	 same	1
26.394562	1.000293	0.018975	1	 Object	 diff	0
27.394855	1.001098	0.01831	1	 Object	 diff	0
28.395953	7.981523	28.395953	 fix	 fix	 fix	 n/a
36.377476	1.000692	0.015545	2	 Scene	 diff	0
37.378168	1.000331	0.014482	2	 Scene	 diff	0
38.378499	1.000329	0.013777	2	 Scene	 diff	0
39.378828	1.000338	0.01303	2	 Scene	 diff	0
40.379166	1.000339	0.012308	2	 Scene	 diff	0
41.379505	1.000329	0.011775	2	 Scene	 same	0
42.379834	1.000321	0.011446	2	 Scene	 diff	0
43.380155	1.000326	0.010133	2	 Scene	 diff	0
44.380481	1.004701	0.009417	2	 Scene	 same	1
45.385182	1.000303	0.021028	2	 Scene	 diff	0
46.385485	1.000307	0.020359	2	 Scene	 diff	0
47.385792	1.000348	0.019672	2	 Scene	 diff	0
48.38614	1.000342	0.018926	2	 Scene	 diff	0
49.386482	1.00034	0.018218	2	 Scene	 diff	0
50.386822	1.000338	0.017489	2	 Scene	 diff	0
51.38716	1.000333	0.016748	2	 Scene	 diff	0
52.387493	7.989972	52.387493	 fix	 fix	 fix	 n/a
60.377465	1.000348	0.023003	3	 Object	 diff	0
61.377813	1.000344	0.022263	3	 Object	 diff	0
62.378157	1.000343	0.02155	3	 Object	 diff	0
63.3785	1.000342	0.020814	3	 Object	 diff	0
64.378842	1.000348	0.020071	3	 Object	 same	0
65.37919	1.000305	0.019358	3	 Object	 diff	0
66.379495	1.000325	0.01864	3	 Object	 diff	0
67.37982	1.000366	0.017932	3	 Object	 diff	0
68.380186	1.000347	0.017268	3	 Object	 same	0
69.380533	1.000358	0.016447	3	 Object	 diff	0
70.380891	1.000337	0.015714	3	 Object	 diff	0
71.381228	1.000351	0.014997	3	 Object	 diff	0
72.381579	1.000365	0.014278	3	 Object	 diff	0
73.381944	1.000382	0.013492	3	 Object	 diff	0
74.382326	1.000347	0.012726	3	 Object	 diff	0
75.382673	1.000301	0.012001	3	 Object	 diff	0
76.382974	7.994533	76.382974	 fix	 fix	 fix	 n/a
84.377507	1.00034	0.013783	4	 Scene	 diff	0
85.377847	1.000347	0.012973	4	 Scene	 diff	0
86.378194	1.000323	0.01225	4	 Scene	 diff	0
87.378517	1.000344	0.011561	4	 Scene	 diff	0
88.378861	1.000348	0.011522	4	 Scene	 diff	0
89.379209	1.000341	0.010064	4	 Scene	 diff	0
90.37955	1.000343	0.026065	4	 Scene	 diff	0
91.379893	1.000337	0.025322	4	 Scene	 same	0
92.38023	1.000342	0.024598	4	 Scene	 diff	0
93.380572	1.00035	0.023857	4	 Scene	 diff	0
94.380922	1.000355	0.023108	4	 Scene	 diff	0
95.381277	1.000344	0.022366	4	 Scene	 diff	0
96.381621	1.000375	0.021632	4	 Scene	 diff	0
97.381996	1.004818	0.020916	4	 Scene	 same	1
98.386814	1.000306	0.01563	4	 Scene	 diff	0
99.38712	1.000324	0.014992	4	 Scene	 diff	0
100.387444	7.990097	100.387444	 fix	 fix	 fix	 n/a
108.377541	1.000344	0.021132	5	 Object	 diff	0
109.377885	1.000364	0.020395	5	 Object	 diff	0
110.378249	1.000346	0.019645	5	 Object	 diff	0
111.378595	1.000352	0.01892	5	 Object	 diff	0
112.378947	1.000326	0.018158	5	 Object	 same	0
113.379273	1.000359	0.017443	5	 Object	 diff	0
114.379632	1.000344	0.016703	5	 Object	 diff	0
115.379976	1.000357	0.015976	5	 Object	 diff	0
116.380333	1.00034	0.015244	5	 Object	 diff	0
117.380673	1.000344	0.014669	5	 Object	 diff	0
118.381017	1.000342	0.013771	5	 Object	 same	0
119.381359	1.000337	0.013043	5	 Object	 diff	0
120.381696	1.000347	0.012328	5	 Object	 diff	0
121.382043	1.000347	0.011751	5	 Object	 diff	0
122.38239	1.000366	0.010839	5	 Object	 diff	0
123.382756	1.000319	0.010077	5	 Object	 diff	0
124.383075	7.994506	124.383075	 fix	 fix	 fix	 n/a
132.377581	1.000346	0.011813	6	 Scene	 diff	0
133.377927	1.000353	0.011457	6	 Scene	 diff	0
134.37828	1.004854	0.010325	6	 Scene	 same	1
135.383134	1.000307	0.021831	6	 Scene	 diff	0
136.383441	1.000324	0.021105	6	 Scene	 diff	0
137.383765	1.000335	0.020382	6	 Scene	 diff	0
138.3841	1.000359	0.019677	6	 Scene	 diff	0
139.384459	1.000349	0.018918	6	 Scene	 diff	0
140.384808	1.000357	0.018216	6	 Scene	 diff	0
141.385165	1.00035	0.017447	6	 Scene	 diff	0
142.385515	1.000343	0.01671	6	 Scene	 diff	0
143.385858	1.000353	0.015992	6	 Scene	 diff	0
144.386211	1.000355	0.015258	6	 Scene	 diff	0
145.386566	1.000362	0.014544	6	 Scene	 same	0
146.386928	1.000362	0.013751	6	 Scene	 diff	0
147.38729	1.000341	0.012994	6	 Scene	 diff	0
148.387631	7.989997	148.387631	 fix	 fix	 fix	 n/a
156.377628	1.000361	0.019204	7	 Object	 diff	0
157.377989	1.005925	0.018504	7	 Object	 same	1
158.383914	1.000499	0.012082	7	 Object	 diff	0
159.384413	1.000342	0.011253	7	 Object	 diff	0
160.384755	1.000346	0.010518	7	 Object	 diff	0
161.385101	1.000357	0.009777	7	 Object	 diff	0
162.385458	1.000354	0.009055	7	 Object	 diff	0
163.385812	1.000345	0.025001	7	 Object	 diff	0
164.386157	1.000333	0.024258	7	 Object	 same	0
165.38649	1.00035	0.023565	7	 Object	 diff	0
166.38684	1.000351	0.022824	7	 Object	 diff	0
167.387191	1.000367	0.02207	7	 Object	 diff	0
168.387558	1.00035	0.021364	7	 Object	 diff	0
169.387908	1.000351	0.020632	7	 Object	 diff	0
170.388259	1.000612	0.020137	7	 Object	 diff	0
171.388871	1.000335	0.018858	7	 Object	 diff	0
172.389206	7.988454	172.389206	 fix	 fix	 fix	 n/a
180.37766	1.000359	0.026653	8	 Scene	 diff	0
181.378019	1.004499	0.025884	8	 Scene	 same	1
182.382518	1.000349	0.02101	8	 Scene	 diff	0
183.382867	1.000346	0.020233	8	 Scene	 diff	0
184.383213	1.000361	0.019543	8	 Scene	 diff	0
185.383574	1.00577	0.01892	8	 Scene	 same	1
186.389344	1.000325	0.012532	8	 Scene	 diff	0
187.389669	1.000356	0.011963	8	 Scene	 diff	0
188.390025	1.000359	0.01113	8	 Scene	 diff	0
189.390384	1.000361	0.010384	8	 Scene	 diff	0
190.390745	1.000247	0.009623	8	 Scene	 diff	0
191.390992	1.000364	0.025743	8	 Scene	 diff	0
192.391356	1.000369	0.024939	8	 Scene	 diff	0
193.391725	1.00036	0.024221	8	 Scene	 diff	0
194.392085	1.000361	0.023475	8	 Scene	 diff	0
195.392446	1.000337	0.022742	8	 Scene	 diff	0
196.392783	7.984925	196.392783	 fix	 fix	 fix	 n/a
204.377708	1.000357	0.0173	9	 Object	 diff	0
205.378065	1.000363	0.016562	9	 Object	 diff	0
206.378428	1.000354	0.01584	9	 Object	 diff	0
207.378782	1.000364	0.015153	9	 Object	 diff	0
208.379146	1.000355	0.014319	9	 Object	 diff	0
209.379501	1.000338	0.013583	9	 Object	 diff	0
210.379839	1.000332	0.012859	9	 Object	 diff	0
211.380171	1.000366	0.012131	9	 Object	 diff	0
212.380537	1.004555	0.011377	9	 Object	 same	1
213.385092	1.000312	0.023125	9	 Object	 diff	0
214.385404	1.004571	0.022417	9	 Object	 same	1
215.389975	1.000703	0.017404	9	 Object	 diff	0
216.390678	1.000333	0.016395	9	 Object	 diff	0
217.391011	1.000373	0.015683	9	 Object	 diff	0
218.391384	1.000358	0.015042	9	 Object	 diff	0
219.391742	1.000337	0.014154	9	 Object	 diff	0
220.392079	7.985679	220.392079	 fix	 fix	 fix	 n/a
228.377758	1.000421	0.024698	10	 Scene	 diff	0
229.378179	1.00455	0.02394	10	 Scene	 same	1
230.382729	1.000345	0.019576	10	 Scene	 diff	0
231.383074	1.00037	0.018246	10	 Scene	 diff	0
232.383444	1.000381	0.017454	10	 Scene	 diff	0
233.383825	1.000393	0.016681	10	 Scene	 diff	0
234.384218	1.000371	0.015949	10	 Scene	 diff	0
235.384589	1.00036	0.01517	10	 Scene	 diff	0
236.384949	1.000362	0.014396	10	 Scene	 diff	0
237.385311	1.000348	0.013647	10	 Scene	 same	0
238.385659	1.000457	0.012948	10	 Scene	 diff	0
239.386116	1.000376	0.012043	10	 Scene	 diff	0
240.386492	1.00037	0.011731	10	 Scene	 diff	0
241.386862	1.000364	0.010527	10	 Scene	 diff	0
242.387226	1.000375	0.02651	10	 Scene	 diff	0
243.387601	1.000527	0.025739	10	 Scene	 diff	0
244.388128	7.989677	244.388128	 fix	 fix	 fix	 n/a
252.377805	1.000367	0.015545	11	 Object	 diff	0
253.378172	1.000379	0.014627	11	 Object	 same	0
254.378551	1.000372	0.013867	11	 Object	 diff	0
255.378923	1.000375	0.013289	11	 Object	 diff	0
256.379298	1.000368	0.013078	11	 Object	 diff	0
257.379666	1.000368	0.011577	11	 Object	 diff	0
258.380034	1.000373	0.010832	11	 Object	 diff	0
259.380407	1.000379	0.010087	11	 Object	 diff	0
260.380786	1.000374	0.026022	11	 Object	 same	0
261.38116	1.000406	0.025309	11	 Object	 diff	0
262.381566	1.000379	0.024477	11	 Object	 diff	0
263.381945	1.000379	0.023708	11	 Object	 diff	0
264.382324	1.000365	0.022999	11	 Object	 diff	0
265.382689	1.000378	0.022206	11	 Object	 diff	0
266.383067	1.00037	0.021424	11	 Object	 diff	0
267.383437	1.000358	0.020856	11	 Object	 diff	0
268.383795	7.994046	268.383795	 fix	 fix	 fix	 n/a
276.377841	1.000359	0.022802	12	 Scene	 diff	0
277.3782	1.000378	0.022087	12	 Scene	 diff	0
278.378578	1.000365	0.021756	12	 Scene	 diff	0
279.378943	1.000391	0.020547	12	 Scene	 same	0
280.379334	1.000428	0.019728	12	 Scene	 diff	0
281.379762	1.000401	0.019023	12	 Scene	 diff	0
282.380163	1.005459	0.018146	12	 Scene	 same	1
283.385622	1.000347	0.012253	12	 Scene	 diff	0
284.385969	1.000377	0.011586	12	 Scene	 diff	0
285.386346	1.001037	0.010775	12	 Scene	 diff	0
286.387383	1.000354	0.009309	12	 Scene	 diff	0
287.387737	1.000384	0.008567	12	 Scene	 diff	0
288.388121	1.000365	0.024544	12	 Scene	 diff	0
289.388486	1.000523	0.023816	12	 Scene	 diff	0
290.389009	1.000381	0.022859	12	 Scene	 diff	0
291.38939	1.00036	0.022106	12	 Scene	 diff	0
292.38975	12	292.38975	 fix	 fix	 fix	 n/a
