onset	duration	run#	block_kind	current_block	actual_TR	stim_n/ame	fixation_kind	response	RT
0.01	12.0	2	fix	n/a	0	n/a	white	n/a	n/a
12.01	1.99	2	hallway	7	6	hallway1	green	1	1200.03
14	2.0	2	hallway	7	7	hallway2	red	0	9999
16	2.0	2	hallway	7	8	hallway4	red	0	9999
18	2.0	2	hallway	7	9	hallway3	red	0	9999
20	2.0	2	hallway	7	10	hallway2	red	0	9999
22	2.0	2	hallway	7	11	hallway1	green	1	653.74
24	2.0	2	hallway	7	12	hallway4	red	0	9999
26	2.01	2	hallway	7	13	hallway3	red	0	9999
28.01	8.03	2	fix	n/a	14	n/a	white	n/a	n/a
36.04	1.96	2	wkobj	8	18	wkobj2	red	0	9999
38	2.0	2	wkobj	8	19	wkobj3	red	0	9999
40	2.0	2	wkobj	8	20	wkobj1	red	0	9999
42	2.0	2	wkobj	8	21	wkobj4	red	0	9999
44	2.0	2	wkobj	8	22	wkobj2	red	0	9999
46	2.0	2	wkobj	8	23	wkobj3	green	1	693.84
48	2.0	2	wkobj	8	24	wkobj4	red	0	9999
50	2.01	2	wkobj	8	25	wkobj1	green	1	1062.83
52.01	8.02	2	fix	n/a	26	n/a	white	n/a	n/a
60.03	1.97	2	SpId	2	30	n/a	red	0	9999
62	2.0	2	SpId	2	31	n/a	red	0	9999
64	2.0	2	SpId	2	32	n/a	red	0	9999
66	2.0	2	SpId	2	33	n/a	green	1	669.5
68	2.0	2	SpId	2	34	n/a	red	0	9999
70	2.0	2	SpId	2	35	n/a	green	1	758.96
72	2.0	2	SpId	2	36	n/a	red	0	9999
74	2.01	2	SpId	2	37	n/a	red	0	9999
76.01	8.03	2	fix	n/a	38	n/a	white	n/a	n/a
84.04	1.96	2	NC	4	42	n/a	red	0	9999
86	2.0	2	NC	4	43	n/a	red	0	9999
88	2.0	2	NC	4	44	n/a	red	0	9999
90	2.0	2	NC	4	45	n/a	red	0	9999
92	2.0	2	NC	4	46	n/a	green	1	846.94
94	2.0	2	NC	4	47	n/a	red	0	9999
96	2.0	2	NC	4	48	n/a	red	0	9999
98	2.0	2	NC	4	49	n/a	green	1	617.32
100	8.03	2	fix	n/a	50	n/a	white	n/a	n/a
108.03	1.97	2	ID	3	54	n/a	green	1	979.46
110	2.0	2	ID	3	55	n/a	red	0	9999
112	2.0	2	ID	3	56	n/a	red	0	9999
114	2.0	2	ID	3	57	n/a	green	1	767.74
116	2.0	2	ID	3	58	n/a	red	0	9999
118	2.0	2	ID	3	59	n/a	red	0	9999
120	2.0	2	ID	3	60	n/a	red	0	9999
122	2.01	2	ID	3	61	n/a	red	0	9999
124.01	8.03	2	fix	n/a	62	n/a	white	n/a	n/a
132.04	1.96	2	longroad	6	66	longroad1	red	0	9999
134	2.0	2	longroad	6	67	longroad2	green	1	798.18
136	2.0	2	longroad	6	68	longroad3	red	0	9999
138	2.0	2	longroad	6	69	longroad4	red	0	9999
140	2.0	2	longroad	6	70	longroad2	red	0	9999
142	2.0	2	longroad	6	71	longroad4	green	1	792.92
144	2.0	2	longroad	6	72	longroad3	red	0	9999
146	2.02	2	longroad	6	73	longroad1	red	0	9999
148.02	8.03	2	fix	n/a	74	n/a	white	n/a	n/a
156.05	1.95	2	scrambledobj	9	78	scrambledobj1	red	0	9999
158	2.0	2	scrambledobj	9	79	scrambledobj2	red	0	9999
160	2.0	2	scrambledobj	9	80	scrambledobj3	red	0	9999
162	2.0	2	scrambledobj	9	81	scrambledobj4	green	1	896.88
164	2.0	2	scrambledobj	9	82	scrambledobj2	green	1	832.88
166	2.0	2	scrambledobj	9	83	scrambledobj1	red	0	9999
168	2.0	2	scrambledobj	9	84	scrambledobj3	red	0	9999
170	2.01	2	scrambledobj	9	85	scrambledobj4	red	0	9999
172.01	8.03	2	fix	n/a	86	n/a	white	n/a	n/a
180.04	1.96	2	intersection	5	90	intersection1	red	0	9999
182	2.0	2	intersection	5	91	intersection4	red	0	9999
184	2.0	2	intersection	5	92	intersection3	green	1	784.42
186	2.0	2	intersection	5	93	intersection2	red	0	9999
188	2.0	2	intersection	5	94	intersection4	red	0	9999
190	2.0	2	intersection	5	95	intersection1	green	1	650.92
192	2.0	2	intersection	5	96	intersection3	red	0	9999
194	2.02	2	intersection	5	97	intersection2	red	0	9999
196.02	8.03	2	fix	n/a	98	n/a	white	n/a	n/a
204.05	1.95	2	Sp	1	102	n/a	green	1	927.03
206	2.0	2	Sp	1	103	n/a	green	1	849.7
208	2.0	2	Sp	1	104	n/a	red	0	9999
210	2.0	2	Sp	1	105	n/a	red	0	9999
212	2.0	2	Sp	1	106	n/a	red	0	9999
214	2.0	2	Sp	1	107	n/a	red	0	9999
216	2.0	2	Sp	1	108	n/a	red	0	9999
218	2.01	2	Sp	1	109	n/a	red	0	9999
220.01	8.03	2	fix	n/a	110	n/a	white	n/a	n/a
228.04	1.96	2	ID	3	114	n/a	red	0	9999
230	2.0	2	ID	3	115	n/a	green	1	954.93
232	2.0	2	ID	3	116	n/a	red	0	9999
234	2.0	2	ID	3	117	n/a	red	0	9999
236	2.0	2	ID	3	118	n/a	red	0	9999
238	2.0	2	ID	3	119	n/a	red	0	9999
240	2.0	2	ID	3	120	n/a	green	1	669.47
242	2.02	2	ID	3	121	n/a	red	0	9999
244.02	8.03	2	fix	n/a	122	n/a	white	n/a	n/a
252.05	1.95	2	wkobj	8	126	wkobj4	red	0	9999
254	2.0	2	wkobj	8	127	wkobj3	green	1	770.69
256	2.0	2	wkobj	8	128	wkobj2	red	0	9999
258	2.0	2	wkobj	8	129	wkobj1	green	1	739.83
260	2.0	2	wkobj	8	130	wkobj3	red	0	9999
262	2.0	2	wkobj	8	131	wkobj2	red	0	9999
264	2.0	2	wkobj	8	132	wkobj1	red	0	9999
266	2.01	2	wkobj	8	133	wkobj4	red	0	9999
268.01	8.03	2	fix	n/a	134	n/a	white	n/a	n/a
276.04	1.96	2	Sp	1	138	n/a	red	0	9999
278	2.0	2	Sp	1	139	n/a	green	1	1068.49
280	2.0	2	Sp	1	140	n/a	green	1	820.7
282	2.0	2	Sp	1	141	n/a	red	0	9999
284	2.0	2	Sp	1	142	n/a	red	0	9999
286	2.0	2	Sp	1	143	n/a	red	0	9999
288	2.0	2	Sp	1	144	n/a	red	0	9999
290	2.01	2	Sp	1	145	n/a	red	0	9999
292.01	8.03	2	fix	n/a	146	n/a	white	n/a	n/a
300.04	1.96	2	longroad	6	150	longroad1	red	0	9999
302	2.0	2	longroad	6	151	longroad4	red	0	9999
304	2.0	2	longroad	6	152	longroad2	red	0	9999
306	2.0	2	longroad	6	153	longroad3	red	0	9999
308	2.0	2	longroad	6	154	longroad1	red	0	9999
310	2.0	2	longroad	6	155	longroad4	red	0	9999
312	2.0	2	longroad	6	156	longroad3	green	1	832.19
314	2.0	2	longroad	6	157	longroad2	green	1	784.64
316	8.04	2	fix	n/a	158	n/a	white	n/a	n/a
324.04	1.96	2	hallway	7	162	hallway4	red	0	9999
326	2.0	2	hallway	7	163	hallway3	red	0	9999
328	2.0	2	hallway	7	164	hallway2	red	0	9999
330	2.0	2	hallway	7	165	hallway1	red	0	9999
332	2.0	2	hallway	7	166	hallway2	green	1	558.94
334	2.0	2	hallway	7	167	hallway4	red	0	9999
336	2.0	2	hallway	7	168	hallway3	red	0	9999
338	2.01	2	hallway	7	169	hallway1	green	1	665.37
340.01	8.03	2	fix	n/a	170	n/a	white	n/a	n/a
348.04	1.96	2	NC	4	174	n/a	red	0	9999
350	2.0	2	NC	4	175	n/a	green	1	782.6
352	2.0	2	NC	4	176	n/a	red	0	9999
354	2.0	2	NC	4	177	n/a	red	0	9999
356	2.0	2	NC	4	178	n/a	red	0	9999
358	2.0	2	NC	4	179	n/a	red	0	9999
360	2.0	2	NC	4	180	n/a	green	1	866.65
362	2.02	2	NC	4	181	n/a	red	0	9999
364.02	8.03	2	fix	n/a	182	n/a	white	n/a	n/a
372.05	1.95	2	scrambledobj	9	186	scrambledobj2	red	0	9999
374	2.0	2	scrambledobj	9	187	scrambledobj4	red	0	9999
376	2.0	2	scrambledobj	9	188	scrambledobj1	red	0	9999
378	2.0	2	scrambledobj	9	189	scrambledobj3	green	1	1968.53
380	2.0	2	scrambledobj	9	190	scrambledobj1	green	1	0.55
382	2.0	2	scrambledobj	9	191	scrambledobj2	red	0	9999
384	2.0	2	scrambledobj	9	192	scrambledobj4	red	0	9999
386	2.01	2	scrambledobj	9	193	scrambledobj3	red	0	9999
388.01	8.04	2	fix	n/a	194	n/a	white	n/a	n/a
396.05	1.95	2	SpId	2	198	n/a	red	0	9999
398	2.0	2	SpId	2	199	n/a	red	0	9999
400	2.0	2	SpId	2	200	n/a	red	0	9999
402	2.0	2	SpId	2	201	n/a	red	0	9999
404	2.0	2	SpId	2	202	n/a	green	1	882.37
406	2.0	2	SpId	2	203	n/a	red	0	9999
408	2.0	2	SpId	2	204	n/a	red	0	9999
410	2.02	2	SpId	2	205	n/a	green	1	956.48
412.02	8.03	2	fix	n/a	206	n/a	white	n/a	n/a
420.05	1.95	2	intersection	5	210	intersection4	red	0	9999
422	2.0	2	intersection	5	211	intersection2	green	1	720.92
424	2.0	2	intersection	5	212	intersection1	green	1	841.3
426	2.0	2	intersection	5	213	intersection3	red	0	9999
428	2.0	2	intersection	5	214	intersection2	red	0	9999
430	2.0	2	intersection	5	215	intersection1	red	0	9999
432	2.0	2	intersection	5	216	intersection4	red	0	9999
434	2.01	2	intersection	5	217	intersection3	red	0	9999
436.01	12.03	2	fix	n/a	218	n/a	white	n/a	n/a
448.04	12	2	EndFix	n/a	224	n/a	white	n/a	n/a
