onset	duration	run#	block_kind	current_block	actual_TR	stim_n/ame	fixation_kind	response	RT
0.02	12.0	2	fix	n/a	0	n/a	white	n/a	n/a
12.02	1.98	2	intersection	5	6	intersection1	red	0	9999
14	2.0	2	intersection	5	7	intersection3	green	1	920.55
16	2.0	2	intersection	5	8	intersection4	red	0	9999
18	2.0	2	intersection	5	9	intersection2	red	0	9999
20	2.0	2	intersection	5	10	intersection4	red	0	9999
22	2.0	2	intersection	5	11	intersection1	green	1	628.57
24	2.0	2	intersection	5	12	intersection2	red	0	9999
26	2.01	2	intersection	5	13	intersection3	red	0	9999
28.01	8.02	2	fix	n/a	14	n/a	white	n/a	n/a
36.03	1.97	2	SpId	2	18	n/a	red	0	9999
38	2.0	2	SpId	2	19	n/a	red	0	9999
40	2.0	2	SpId	2	20	n/a	red	0	9999
42	2.0	2	SpId	2	21	n/a	green	1	1588.58
44	2.0	2	SpId	2	22	n/a	red	0	9999
46	2.0	2	SpId	2	23	n/a	green	1	758.4
48	2.0	2	SpId	2	24	n/a	red	0	9999
50	2.02	2	SpId	2	25	n/a	red	0	9999
52.02	8.02	2	fix	n/a	26	n/a	white	n/a	n/a
60.04	1.96	2	Sp	1	30	n/a	green	1	752.99
62	2.0	2	Sp	1	31	n/a	red	0	9999
64	2.0	2	Sp	1	32	n/a	red	0	9999
66	2.0	2	Sp	1	33	n/a	red	0	9999
68	2.0	2	Sp	1	34	n/a	green	1	765.42
70	2.0	2	Sp	1	35	n/a	red	0	9999
72	2.0	2	Sp	1	36	n/a	red	0	9999
74	2.01	2	Sp	1	37	n/a	red	0	9999
76.01	8.02	2	fix	n/a	38	n/a	white	n/a	n/a
84.03	1.97	2	scrambledobj	9	42	scrambledobj1	green	1	682.3
86	2.0	2	scrambledobj	9	43	scrambledobj4	red	0	9999
88	2.0	2	scrambledobj	9	44	scrambledobj2	red	0	9999
90	2.0	2	scrambledobj	9	45	scrambledobj3	red	0	9999
92	2.0	2	scrambledobj	9	46	scrambledobj2	red	0	9999
94	2.0	2	scrambledobj	9	47	scrambledobj1	red	0	9999
96	2.0	2	scrambledobj	9	48	scrambledobj3	red	0	9999
98	2.01	2	scrambledobj	9	49	scrambledobj4	green	1	640.39
100.01	8.03	2	fix	n/a	50	n/a	white	n/a	n/a
108.04	1.96	2	NC	4	54	n/a	green	1	867.76
110	2.0	2	NC	4	55	n/a	red	0	9999
112	2.0	2	NC	4	56	n/a	green	1	1014.58
114	2.0	2	NC	4	57	n/a	red	0	9999
116	2.0	2	NC	4	58	n/a	red	0	9999
118	2.0	2	NC	4	59	n/a	red	0	9999
120	2.0	2	NC	4	60	n/a	red	0	9999
122	2.02	2	NC	4	61	n/a	red	0	9999
124.02	8.03	2	fix	n/a	62	n/a	white	n/a	n/a
132.05	1.95	2	hallway	7	66	hallway1	green	1	835.1
134	2.0	2	hallway	7	67	hallway2	green	1	941.62
136	2.0	2	hallway	7	68	hallway3	red	0	9999
138	2.0	2	hallway	7	69	hallway4	red	0	9999
140	2.0	2	hallway	7	70	hallway2	red	0	9999
142	2.0	2	hallway	7	71	hallway1	red	0	9999
144	2.0	2	hallway	7	72	hallway3	red	0	9999
146	2.01	2	hallway	7	73	hallway4	red	0	9999
148.01	8.03	2	fix	n/a	74	n/a	white	n/a	n/a
156.04	1.96	2	longroad	6	78	longroad3	red	0	9999
158	2.0	2	longroad	6	79	longroad1	red	0	9999
160	2.0	2	longroad	6	80	longroad4	red	0	9999
162	2.0	2	longroad	6	81	longroad2	green	1	608.22
164	2.0	2	longroad	6	82	longroad3	green	1	752.96
166	2.0	2	longroad	6	83	longroad4	red	0	9999
168	2.0	2	longroad	6	84	longroad2	red	0	9999
170	2.02	2	longroad	6	85	longroad1	red	0	9999
172.02	8.03	2	fix	n/a	86	n/a	white	n/a	n/a
180.05	1.95	2	wkobj	8	90	wkobj2	red	0	9999
182	2.0	2	wkobj	8	91	wkobj3	green	1	708.81
184	2.0	2	wkobj	8	92	wkobj4	red	0	9999
186	2.0	2	wkobj	8	93	wkobj1	red	0	9999
188	2.0	2	wkobj	8	94	wkobj2	red	0	9999
190	2.0	2	wkobj	8	95	wkobj1	red	0	9999
192	2.0	2	wkobj	8	96	wkobj3	green	1	642.37
194	2.01	2	wkobj	8	97	wkobj4	red	0	9999
196.01	8.03	2	fix	n/a	98	n/a	white	n/a	n/a
204.04	1.96	2	ID	3	102	n/a	green	1	711.24
206	2.0	2	ID	3	103	n/a	green	1	753.46
208	2.0	2	ID	3	104	n/a	red	0	9999
210	2.0	2	ID	3	105	n/a	red	0	9999
212	2.0	2	ID	3	106	n/a	red	0	9999
214	2.0	2	ID	3	107	n/a	red	0	9999
216	2.0	2	ID	3	108	n/a	red	0	9999
218	2.02	2	ID	3	109	n/a	red	0	9999
220.02	8.03	2	fix	n/a	110	n/a	white	n/a	n/a
228.05	1.95	2	longroad	6	114	longroad4	green	1	798.57
230	2.0	2	longroad	6	115	longroad3	red	0	9999
232	2.0	2	longroad	6	116	longroad2	red	0	9999
234	2.0	2	longroad	6	117	longroad1	green	1	922.13
236	2.0	2	longroad	6	118	longroad4	red	0	9999
238	2.0	2	longroad	6	119	longroad3	red	0	9999
240	2.0	2	longroad	6	120	longroad1	red	0	9999
242	2.01	2	longroad	6	121	longroad2	red	0	9999
244.01	8.03	2	fix	n/a	122	n/a	white	n/a	n/a
252.04	1.96	2	hallway	7	126	hallway2	red	0	9999
254	2.0	2	hallway	7	127	hallway1	red	0	9999
256	2.0	2	hallway	7	128	hallway3	green	1	618.48
258	2.0	2	hallway	7	129	hallway4	green	1	763.92
260	2.0	2	hallway	7	130	hallway2	red	0	9999
262	2.0	2	hallway	7	131	hallway4	red	0	9999
264	2.0	2	hallway	7	132	hallway3	red	0	9999
266	2.02	2	hallway	7	133	hallway1	red	0	9999
268.02	8.02	2	fix	n/a	134	n/a	white	n/a	n/a
276.04	1.96	2	SpId	2	138	n/a	red	0	9999
278	2.0	2	SpId	2	139	n/a	green	1	724.14
280	2.0	2	SpId	2	140	n/a	red	0	9999
282	2.0	2	SpId	2	141	n/a	red	0	9999
284	2.0	2	SpId	2	142	n/a	green	1	677.37
286	2.0	2	SpId	2	143	n/a	red	0	9999
288	2.0	2	SpId	2	144	n/a	red	0	9999
290	2.01	2	SpId	2	145	n/a	red	0	9999
292.01	8.03	2	fix	n/a	146	n/a	white	n/a	n/a
300.04	1.96	2	NC	4	150	n/a	red	0	9999
302	2.0	2	NC	4	151	n/a	green	1	595.94
304	2.0	2	NC	4	152	n/a	red	0	9999
306	2.0	2	NC	4	153	n/a	red	0	9999
308	2.0	2	NC	4	154	n/a	red	0	9999
310	2.0	2	NC	4	155	n/a	green	1	647.43
312	2.0	2	NC	4	156	n/a	red	0	9999
314	2.01	2	NC	4	157	n/a	red	0	9999
316.01	8.04	2	fix	n/a	158	n/a	white	n/a	n/a
324.05	1.95	2	intersection	5	162	intersection3	green	1	746.22
326	2.0	2	intersection	5	163	intersection4	red	0	9999
328	2.0	2	intersection	5	164	intersection1	red	0	9999
330	2.0	2	intersection	5	165	intersection2	red	0	9999
332	2.0	2	intersection	5	166	intersection2	red	0	9999
334	2.0	2	intersection	5	167	intersection3	green	1	679.67
336	2.0	2	intersection	5	168	intersection4	red	0	9999
338	2.02	2	intersection	5	169	intersection1	red	0	9999
340.02	8.03	2	fix	n/a	170	n/a	white	n/a	n/a
348.05	1.95	2	ID	3	174	n/a	red	0	9999
350	2.0	2	ID	3	175	n/a	red	0	9999
352	2.0	2	ID	3	176	n/a	red	0	9999
354	2.0	2	ID	3	177	n/a	green	1	1080.04
356	2.0	2	ID	3	178	n/a	green	1	656.3
358	2.0	2	ID	3	179	n/a	red	0	9999
360	2.0	2	ID	3	180	n/a	red	0	9999
362	2.01	2	ID	3	181	n/a	red	0	9999
364.01	8.04	2	fix	n/a	182	n/a	white	n/a	n/a
372.05	1.95	2	scrambledobj	9	186	scrambledobj4	red	0	9999
374	2.0	2	scrambledobj	9	187	scrambledobj2	red	0	9999
376	2.0	2	scrambledobj	9	188	scrambledobj1	red	0	9999
378	2.0	2	scrambledobj	9	189	scrambledobj3	red	0	9999
380	2.0	2	scrambledobj	9	190	scrambledobj1	green	1	784.02
382	2.0	2	scrambledobj	9	191	scrambledobj3	green	1	1145.87
384	2.0	2	scrambledobj	9	192	scrambledobj2	red	0	9999
386	2.02	2	scrambledobj	9	193	scrambledobj4	red	0	9999
388.02	8.04	2	fix	n/a	194	n/a	white	n/a	n/a
396.06	1.94	2	Sp	1	198	n/a	red	0	9999
398	2.0	2	Sp	1	199	n/a	red	0	9999
400	2.0	2	Sp	1	200	n/a	red	0	9999
402	2.0	2	Sp	1	201	n/a	red	0	9999
404	2.0	2	Sp	1	202	n/a	green	1	817.95
406	2.0	2	Sp	1	203	n/a	green	1	955.88
408	2.0	2	Sp	1	204	n/a	red	0	9999
410	2.01	2	Sp	1	205	n/a	red	0	9999
412.01	8.04	2	fix	n/a	206	n/a	white	n/a	n/a
420.05	1.95	2	wkobj	8	210	wkobj2	red	0	9999
422	2.0	2	wkobj	8	211	wkobj1	green	1	847.81
424	2.0	2	wkobj	8	212	wkobj3	red	0	9999
426	2.0	2	wkobj	8	213	wkobj4	red	0	9999
428	2.0	2	wkobj	8	214	wkobj1	red	0	9999
430	2.0	2	wkobj	8	215	wkobj2	green	1	747.09
432	2.0	2	wkobj	8	216	wkobj4	red	0	9999
434	2.02	2	wkobj	8	217	wkobj3	red	0	9999
436.02	12.03	2	fix	n/a	218	n/a	white	n/a	n/a
448.05	12	2	EndFix	n/a	224	n/a	white	n/a	n/a
